datetime,acc_x,acc_y,acc_z,1493267214025,0.006348,0.601318,-0.786621
1493267214083,0.010010,0.595703,-0.790527
1493267214215,0.008057,0.598633,-0.790527
1493267214348,0.008545,0.600098,-0.790771
1493267214455,0.009521,0.596436,-0.790771
1493267214609,0.005859,0.604492,-0.821045
1493267214741,-0.016602,0.738525,-0.760986
1493267214856,-0.095215,0.993408,-0.156250
1493267214989,-0.076660,0.173340,0.579102
1493267215121,0.058594,0.498779,0.856201
1493267215235,0.095459,1.408447,1.096191
1493267215368,-0.066406,1.181152,0.106689
1493267215525,-0.287842,0.107422,-0.730713
1493267215633,-0.346191,0.841553,-0.574707
1493267215766,0.312256,1.164307,-0.472900
1493267215889,0.930908,0.680176,0.106445
1493267216021,0.677002,1.463135,-0.238770
1493267216154,0.317871,0.697510,-0.382812
1493267216286,0.245361,0.219482,-0.677979
1493267216425,0.447998,0.300049,-0.405029
1493267216536,0.209961,1.381592,-0.183838
1493267216669,1.014893,1.364014,0.375244
1493267216784,0.985840,0.674072,-1.040771
1493267216925,0.387451,0.916016,-0.754395
1493267217058,0.722656,0.530518,-0.324951
1493267217169,0.581299,0.516602,-0.252197
1493267217302,0.576172,0.882812,-0.680908
1493267217434,0.218750,0.546387,-1.039062
1493267217566,0.251709,0.418213,-0.653076
1493267217699,-0.075928,0.080078,-1.345459
1493267217835,0.148438,0.405762,-0.821533
1493267217968,0.345703,0.442627,-1.098877
1493267218075,0.414307,0.261475,-0.868896
1493267218208,0.296387,0.565186,-0.463135
1493267218365,0.031006,0.425049,-0.292969
1493267218474,0.114014,0.248535,-0.289551
1493267218607,2.305420,0.498047,-0.298340
1493267218741,0.837402,0.163818,-0.192627
1493267218872,0.679932,-0.126465,0.119385
1493267219004,0.742188,0.530029,-0.263428
1493267219113,1.326660,0.257324,-0.176270
1493267219245,1.482178,0.309326,-0.354492
1493267219379,0.669922,0.211426,-0.097412
1493267219514,1.307373,0.470459,-0.178467
1493267219643,0.829102,0.478271,-0.187256
1493267219754,0.743896,0.614990,0.136230
1493267219898,0.981201,0.003418,-0.101807
1493267220021,1.628418,0.326904,-0.598145
1493267220181,0.645508,0.377686,0.010254
1493267220289,0.729248,0.209473,-0.195557
1493267220421,0.726807,0.302979,0.033936
1493267220554,1.772217,0.365234,-0.289551
1493267220686,1.099854,0.163330,0.080811
1493267220794,0.754883,0.251221,0.006592
1493267220921,1.088379,0.172119,-0.168945
1493267221063,0.937256,0.119385,-0.057617
1493267221193,0.935791,0.297607,-0.031006
1493267221326,0.964111,0.148682,0.099121
1493267221463,1.125244,0.137939,-0.047607
1493267221570,0.864746,0.188477,-0.010254
1493267221709,0.973633,0.342041,-0.121826
1493267221837,0.937012,0.195068,0.039551
1493267221974,1.051025,0.083740,0.079834
1493267222116,1.047607,0.430664,-0.255127
1493267222223,0.872803,0.253662,-0.067871
1493267222369,0.922119,0.251953,0.041992
1493267222483,0.927490,0.322510,-0.051025
1493267222612,1.016846,0.306641,0.078613
1493267222751,1.023438,0.376953,0.120850
1493267222876,0.831299,0.616699,-0.080811
1493267223013,0.837891,0.644531,-0.036865
1493267223120,0.702881,0.111816,0.047852
1493267223273,0.926270,0.085938,-0.078369
1493267223381,1.587646,0.339111,-0.328125
1493267223517,1.433594,0.475098,-0.210693
1493267223656,0.745605,0.294434,0.156982
1493267223789,1.052490,0.255127,-0.225098
1493267223896,1.555420,0.023682,-0.350342
1493267224060,1.217285,0.232666,-0.303955
1493267224168,0.982178,0.164551,-0.004639
1493267224300,0.488525,0.018555,0.104248
1493267224439,0.988037,0.174805,0.122559
1493267224545,1.493652,0.602051,-0.207520
1493267224679,0.926025,0.311523,-0.117432
1493267224811,0.831055,0.424316,-0.095703
1493267224953,1.055176,0.394775,-0.106201
1493267225061,1.078369,0.620117,-0.118896
1493267225219,0.642090,0.653564,-0.129883
1493267225336,0.305664,0.892334,-0.257324
1493267225468,-0.016846,0.957275,-0.536377
1493267225583,-0.147949,1.001465,-0.288574
1493267225698,-0.423340,0.970947,-0.903076
1493267225834,0.261963,0.379883,-0.055420
1493267225991,-0.960205,1.674072,-0.543701
1493267226106,0.538818,-0.377930,0.845459
1493267226238,0.262207,-0.074463,0.310303
1493267226369,-0.126953,1.977051,-0.217285
1493267226500,0.548340,0.757324,0.180664
1493267226633,0.543701,0.786621,-0.328613
1493267226767,0.677979,1.066162,-0.002197
1493267226902,0.385742,0.659180,-0.891357
1493267227015,0.790527,0.551758,-0.760010
1493267227145,0.652344,0.407471,-0.763672
1493267227280,0.627197,0.157959,-0.710449
1493267227413,0.569092,0.246338,-0.459473
1493267227552,0.890625,0.940674,-0.371826
1493267227652,0.774658,0.747559,-0.280029
1493267227783,0.786621,0.236328,-0.360107
1493267227917,0.832764,0.698486,-0.250732
1493267228049,0.765625,0.440674,-0.801758
1493267228160,0.804443,0.594482,-0.591064
1493267228293,0.855957,0.296875,-0.321533
1493267228421,0.854980,0.264893,-0.250000
1493267228554,0.847168,0.310547,-0.099121
1493267228695,0.894287,0.421631,-0.093018
1493267228829,1.130371,0.435791,0.149658
1493267228945,1.098633,0.167969,0.139893
1493267229078,1.001953,0.105225,-0.046143
1493267229210,0.863281,0.286621,-0.055908
1493267229343,0.892334,0.176025,-0.040527
1493267229482,1.038818,0.278320,0.032471
1493267229589,0.833252,0.374023,0.018066
1493267229723,0.978271,0.385498,-0.197998
1493267229855,0.994629,0.210938,-0.055176
1493267229999,1.018555,0.120117,-0.033691
1493267230113,0.943848,0.209961,-0.052734
1493267230245,0.911865,0.270020,-0.123779
1493267230378,0.986328,0.164795,-0.036133
1493267230492,0.934326,0.199951,-0.033203
1493267230656,0.908203,0.299805,-0.091064
1493267230752,0.958740,0.292236,-0.026367
1493267230891,0.939453,0.349609,-0.024902
1493267231026,0.927734,0.331787,-0.067871
1493267231136,0.951904,0.315918,-0.033447
1493267231282,0.915283,0.350830,-0.031738
1493267231411,0.932129,0.308105,-0.065186
1493267231544,0.948730,0.260010,-0.052734
1493267231660,0.953369,0.243164,-0.074951
1493267231815,0.985107,0.160156,-0.032471
1493267231920,0.947021,0.147461,-0.001953
1493267232062,0.774902,0.250732,-0.014404
1493267232193,0.895996,0.292969,0.050781
1493267232324,1.059326,0.459961,-0.064209
1493267232432,1.361328,0.679199,-0.316406
1493267232587,0.918213,0.204834,-0.175781
1493267232692,0.662842,0.252197,-0.134521
1493267232831,0.859863,0.162109,-0.128906
1493267232969,1.423340,0.380859,-0.306641
1493267233077,0.839844,0.290283,0.104004
1493267233210,0.813477,0.125977,-0.112305
1493267233351,0.830322,0.312744,0.090332
1493267233486,1.776123,0.493896,-0.238281
1493267233594,1.038330,0.326904,-0.082764
1493267233725,0.765381,0.221924,-0.176025
1493267233864,0.961182,0.310303,-0.235352
1493267233997,1.118652,0.301025,-0.284668
1493267234129,0.860107,0.290039,0.183594
1493267234236,0.924561,0.027344,0.081299
1493267234369,1.073486,0.303955,0.158691
1493267234502,1.103760,0.410400,0.060547
1493267234634,1.195312,0.384521,-0.091797
1493267234767,0.861816,0.367920,-0.149658
1493267234899,1.050049,0.270020,-0.289307
1493267235032,0.939941,0.276367,-0.284668
1493267235144,0.748291,0.329346,-0.038818
1493267235285,0.804443,0.138184,0.070068
1493267235418,1.137451,0.368652,0.110352
1493267235551,1.146729,0.398193,-0.028076
1493267235663,0.805664,0.339600,-0.136475
1493267235798,0.874512,0.229004,-0.227051
1493267235926,1.117676,0.341797,-0.476807
1493267236068,0.884277,0.009033,-0.125244
1493267236180,0.806152,0.272705,-0.081543
1493267236331,0.978271,0.283936,-0.069092
1493267236449,0.971436,0.287354,0.003174
1493267236591,0.830078,0.413086,-0.018066
1493267236698,0.885010,0.520020,-0.133789
1493267236831,0.861572,0.454590,-0.182861
1493267236963,0.956299,0.399414,-0.277588
1493267237096,0.875488,0.342041,-0.080322
1493267237222,0.956787,0.401123,-0.122803
1493267237340,0.647217,1.020996,-0.327637
1493267237473,0.358154,0.915527,-0.394287
1493267237609,0.348633,0.707031,-0.614014
1493267237755,0.080811,0.633789,-0.687500
1493267237864,-0.021484,0.435303,-0.630859
1493267238002,-0.114746,0.566162,-0.792236
1493267238134,-0.153809,0.587646,-0.819580
1493267238264,-0.164307,0.657227,-0.812500
1493267238399,0.196045,0.600586,-0.435547
1493267238513,0.624268,-0.022949,-0.466797
1493267238645,1.137695,0.693848,-1.034424
1493267238779,1.063721,0.555664,-0.568115
1493267238939,0.921875,0.154541,-0.281006
1493267239013,0.624268,-0.187012,-0.904541
1493267239175,0.580322,0.036377,-0.838135
1493267239283,0.739502,-0.299805,-0.663818
1493267239415,0.697510,-0.062988,-0.675049
1493267239548,0.791748,-0.036621,-0.362305
1493267239681,0.850830,0.124512,-0.517334
1493267239807,1.029541,-0.017822,-0.362549
1493267239939,0.535156,-0.093262,-0.879883
1493267240072,0.860596,-0.136230,-0.357178
1493267240214,0.707764,0.107666,-0.727051
1493267240322,1.068115,0.465820,-0.550781
1493267240454,0.474609,-0.084717,-0.528564
1493267240596,0.792480,-0.191162,-0.796387
1493267240730,0.694824,0.467041,-1.008789
1493267240863,0.497314,0.531738,-0.357422
1493267240975,0.879150,0.564941,0.043945
1493267241105,0.513672,0.058105,-0.333496
1493267241243,0.749756,0.213379,-0.599609
1493267241384,0.986084,0.502686,-0.907959
1493267241491,0.562256,0.629639,-0.278076
1493267241632,0.839355,0.633545,-0.049072
1493267241775,0.616699,0.321533,-0.422119
1493267241881,0.713135,0.260254,-0.708984
1493267242014,0.857422,0.351074,-0.316650
1493267242118,0.486328,0.413818,-0.613037
1493267242275,1.048340,0.343750,-0.584961
1493267242408,0.558594,0.716797,0.120361
1493267242516,0.840088,0.169922,0.013428
1493267242673,0.770264,1.009766,0.068604
1493267242774,0.766602,0.515137,-0.010010
1493267242913,0.818115,0.798584,0.251221
1493267243045,0.772217,0.438477,-0.346436
1493267243178,0.523193,0.637695,-0.521484
1493267243286,0.588135,0.799561,-0.472168
1493267243444,0.694336,0.387939,0.119873
1493267243551,0.864990,1.919434,-0.124756
1493267243689,1.073486,0.842773,0.075439
1493267243822,0.729492,0.452393,0.258057
1493267243954,0.611328,0.166260,0.272705
1493267244080,0.853027,0.003662,0.265625
1493267244195,1.367920,0.400146,0.039551
1493267244328,1.172119,0.652588,-0.098389
1493267244461,0.865479,0.457764,-0.272705
1493267244600,0.899658,0.310791,0.012451
1493267244707,1.185059,0.366699,-0.405762
1493267244865,1.000977,0.723877,-0.543213
1493267244974,0.673584,0.699219,0.464355
1493267245111,0.126465,0.795898,-0.191895
1493267245240,0.940918,1.668457,0.036621
1493267245360,0.590332,1.572510,0.294922
1493267245513,-0.229980,0.400635,0.055420
1493267245623,-0.265381,0.088623,0.135498
1493267245755,-0.485352,0.773438,0.284668
1493267245888,-0.528564,0.292725,0.358154
1493267246010,-0.766113,-0.049316,0.258057
1493267246151,-0.872803,-0.170654,0.393799
1493267246283,-0.867920,-0.012451,-0.038330
1493267246390,-1.202881,0.333740,-0.465088
1493267246534,-1.165527,0.455566,-0.176025
1493267246664,-0.770020,0.138184,0.122559
1493267246825,-0.784668,0.201416,0.156250
1493267246924,-0.663818,0.181396,0.352783
1493267247067,-0.261230,0.637695,0.204346
1493267247208,0.215820,0.195801,0.023193
1493267247309,0.995605,2.374023,-0.174805
1493267247446,1.549561,0.845215,-0.030518
1493267247563,0.782715,0.651367,-0.211914
1493267247701,0.821533,0.690430,-0.005371
1493267247818,1.105957,0.442383,-0.179199
1493267247965,1.125732,0.327881,-0.075195
1493267248098,0.814209,0.312012,-0.121582
1493267248214,0.879150,0.255615,-0.229248
1493267248346,0.738525,0.365234,-0.039795
1493267248480,1.093750,0.482422,-0.017822
1493267248597,0.980469,0.593750,-0.150879
1493267248730,0.893066,0.297363,-0.142822
1493267248872,0.814697,0.583740,-0.234863
1493267248972,0.881592,0.395020,-0.154053
1493267249104,0.834961,0.317627,-0.104980
1493267249247,0.946289,0.272217,0.028809
1493267249379,0.924561,0.541260,-0.146729
1493267249487,0.840088,0.337158,-0.100830
1493267249648,1.111328,0.383057,-0.187988
1493267249762,0.809570,0.612549,-0.181396
1493267249895,0.862549,0.405273,-0.122803
1493267250027,0.946533,0.323975,-0.129150
1493267250160,0.870605,0.259766,-0.078857
1493267250292,0.911377,0.361572,-0.033691
1493267250425,0.950439,0.465088,-0.096191
1493267250556,0.895264,0.386230,-0.085205
1493267250663,0.922119,0.383057,-0.104736
1493267250796,0.973633,0.258301,-0.039307
1493267250929,0.903076,0.343506,-0.061035
1493267251050,0.973145,0.366943,-0.097168
1493267251193,0.914795,0.302246,-0.057861
1493267251301,0.927246,0.375000,-0.033691
1493267251441,1.006348,0.382080,-0.083740
1493267251574,0.934082,0.357178,-0.040039
1493267251707,1.000488,0.436035,-0.051270
1493267251843,0.980957,0.360352,-0.094971
1493267251985,0.915527,0.311279,-0.058594
1493267252085,1.015625,0.375000,-0.090332
1493267252228,1.024658,0.344238,-0.104980
1493267252370,0.938965,0.342041,-0.060547
1493267252471,0.989014,0.376953,-0.086426
1493267252608,0.983887,0.356445,-0.095703
1493267252732,0.947266,0.358398,-0.063721
1493267252864,0.981445,0.391357,-0.086670
1493267253010,0.976074,0.390381,-0.088135
1493267253185,0.958008,0.359131,-0.091553
1493267253253,1.000244,0.335938,-0.114990
1493267253388,0.972412,0.319824,-0.110352
1493267253523,0.953857,0.342285,-0.100830
1493267253658,0.958008,0.332764,-0.103027
1493267253793,0.952148,0.350098,-0.093506
1493267253927,0.926025,0.358887,-0.082031
1493267254062,0.927246,0.357422,-0.091309
1493267254197,0.898682,0.317871,-0.094971
1493267254333,0.906494,0.358154,-0.081299
1493267254401,0.864990,0.397949,-0.079346
1493267254539,0.988037,0.363770,-0.095703
1493267254671,0.939453,0.300537,-0.143311
1493267254804,0.862305,0.346436,-0.137695
1493267254938,1.015381,0.342529,-0.069580
1493267255072,0.867188,0.262939,-0.103027
1493267255203,0.866455,0.425781,-0.091797
1493267255338,0.995361,0.339844,-0.047852
1493267255468,0.951172,0.344727,-0.099609
1493267255571,0.890137,0.292969,-0.113281
1493267255707,0.855469,0.300049,-0.037598
1493267255842,0.920166,0.264160,-0.031738
1493267255974,0.902832,0.316162,-0.114746
1493267256082,0.945557,0.457764,-0.109619
1493267256228,1.001465,0.404541,-0.095215
1493267256360,1.117188,0.340820,-0.105469
1493267256493,1.193359,0.420898,-0.166748
1493267256629,0.820557,0.364990,-0.078857
1493267256746,0.861084,0.196045,-0.070801
1493267256876,0.847168,0.395996,0.081543
1493267257009,0.940186,0.375732,0.105469
1493267257147,0.681152,0.674805,-0.016846
1493267257256,0.639160,0.455566,-0.060303
1493267257414,0.814941,0.143799,-0.165039
1493267257523,0.972412,0.358643,-0.196533
1493267257654,1.332275,0.607666,-0.617676
1493267257788,0.492188,0.376465,-0.055176
1493267257922,0.939941,0.191162,-0.090820
1493267258031,1.147949,0.546631,0.100830
1493267258156,0.883301,0.407471,-0.125488
1493267258296,0.934570,0.095947,-0.008789
1493267258429,0.775635,0.271484,-0.171143
1493267258562,1.238525,0.278564,-0.184082
1493267258677,0.773926,0.368652,0.168213
1493267258812,0.844482,0.184082,-0.057373
1493267258945,1.014404,0.419434,0.034912
1493267259068,1.738281,0.643799,-0.173096
1493267259203,0.946533,0.301758,-0.072266
1493267259335,0.815674,0.149902,-0.090576
1493267259449,1.094238,0.335938,-0.173828
1493267259605,1.153564,0.249512,-0.280029
1493267259741,0.699463,0.373535,0.035645
1493267259848,1.005859,0.258057,0.030273
1493267259987,1.238770,0.650146,-0.061035
1493267260126,1.239014,0.499756,-0.062012
1493267260256,0.737061,0.304443,-0.109863
1493267260349,1.052002,0.144531,-0.225830
1493267260510,1.066406,0.304932,-0.251953
1493267260620,0.910400,0.354248,0.047363
1493267260770,0.790039,0.191650,-0.094727
1493267260878,1.014404,0.441650,-0.053223
1493267261016,1.450439,0.564453,-0.139404
1493267261150,1.045898,0.400391,-0.062256
1493267261284,0.581055,0.209229,-0.063477
1493267261416,1.134277,0.426270,-0.232178
1493267261524,1.292969,0.164307,-0.362549
1493267261682,0.577637,0.397217,0.155762
1493267261791,0.916504,0.067871,-0.114258
1493267261928,1.179443,0.517822,0.149902
1493267262049,1.496826,0.508301,-0.242432
1493267262182,0.775879,0.180664,0.010986
1493267262296,0.772461,0.310547,-0.119385
1493267262429,1.154785,0.231201,-0.156738
1493267262558,0.878174,0.309570,-0.026123
1493267262699,0.616211,0.185791,0.020752
1493267262830,1.039307,0.352295,-0.014404
1493267262952,1.581543,0.534180,-0.258545
1493267263076,0.856201,0.438477,-0.073975
1493267263224,0.796143,0.434814,-0.109375
1493267263353,1.040039,0.347656,-0.089844
1493267263462,1.352295,0.362549,-0.288330
1493267263603,0.646240,0.242920,0.129639
1493267263736,0.727783,0.126221,-0.027832
1493267263869,1.033203,0.518799,0.133301
1493267264003,1.391357,0.685791,-0.122803
1493267264111,0.840576,0.532715,-0.167480
1493267264244,0.797119,0.417236,-0.172119
1493267264389,1.067871,0.214355,-0.223633
1493267264538,0.852051,0.295166,-0.033936
1493267264617,0.742676,0.318604,0.030518
1493267264753,1.046631,0.460938,-0.002441
1493267264886,1.154053,0.582275,0.011230
1493267265020,0.951416,0.369141,-0.086914
1493267265153,0.749023,0.214111,-0.136230
1493267265285,0.923096,0.196533,-0.253174
1493267265418,1.387207,0.364502,-0.181396
1493267265550,0.816650,0.121582,0.098389
1493267265683,0.967041,0.525146,-0.039062
1493267265790,1.046875,0.223145,-0.016846
1493267265946,1.393555,0.476074,-0.239258
1493267266054,0.840820,0.356934,-0.140137
1493267266186,0.667236,0.137207,-0.013916
1493267266320,1.155273,0.190430,-0.214844
1493267266453,0.909668,0.412598,-0.134033
1493267266560,0.633057,0.429199,-0.073242
1493267266693,1.007812,0.079590,0.085449
1493267266836,1.260986,0.378906,-0.064209
1493267266944,0.829590,0.346680,-0.147217
1493267267091,0.705811,0.350098,-0.082520
1493267267224,0.908447,0.262207,-0.166748
1493267267334,1.197754,0.150146,-0.172363
1493267267467,0.818604,0.375732,0.002197
1493267267602,0.701172,0.280273,-0.175537
1493267267735,1.136475,0.355469,-0.014160
1493267267873,1.678955,0.621338,-0.162598
1493267267991,1.024414,0.304443,-0.114990
1493267268122,0.862061,0.160400,-0.158203
1493267268261,1.162109,0.288086,-0.237549
1493267268375,0.983643,0.236084,-0.213623
1493267268508,0.781250,0.391846,0.229248
1493267268642,1.159912,0.538086,0.038086
1493267268774,1.056396,0.769043,-0.071777
1493267268883,0.889404,0.807373,-0.187988
1493267269040,0.850830,0.341064,-0.250244
1493267269154,0.729492,0.173828,-0.138672
1493267269290,1.234863,0.335938,-0.378174
1493267269421,0.838867,0.354004,0.248535
1493267269534,1.063232,0.329102,0.190918
1493267269683,1.247559,0.802490,-0.061279
1493267269815,1.064697,0.587158,-0.165527
1493267269925,0.876953,0.358887,-0.223145
1493267270060,0.764404,0.172607,-0.145264
1493267270196,1.012695,0.203857,-0.176758
1493267270310,1.021484,0.375000,-0.061523
1493267270443,0.945312,0.374023,-0.035645
1493267270576,1.130371,0.330566,-0.013672
1493267270709,1.640869,0.739258,-0.070557
1493267270825,0.988525,0.309082,-0.128418
1493267270960,1.068604,0.247070,-0.156006
1493267271093,1.206055,0.248779,-0.259766
1493267271235,0.875732,0.084717,-0.094727
1493267271368,0.784668,0.173584,0.151855
1493267271476,1.374268,0.766357,0.172607
1493267271605,1.297119,0.558594,-0.053223
1493267271737,1.214600,0.409668,-0.127930
1493267271871,0.848877,0.335693,-0.127686
1493267272008,1.124023,0.237305,-0.180908
1493267272122,1.173584,0.199463,-0.151855
1493267272265,0.674316,0.279785,0.090332
1493267272379,1.102295,0.350830,-0.152100
1493267272538,1.374512,0.654785,0.096680
1493267272649,1.402344,0.550293,-0.184570
1493267272782,1.031738,0.365479,-0.119873
1493267272914,1.070801,0.207275,-0.215088
1493267273043,1.071045,0.220459,-0.183105
1493267273160,0.805908,0.310303,0.043945
1493267273294,0.850342,0.222168,-0.174316
1493267273427,1.414307,0.909668,-0.060059
1493267273553,1.622070,0.837158,-0.302490
1493267273685,0.997559,0.358154,-0.161865
1493267273818,0.866943,0.216553,-0.187500
1493267273949,1.074463,0.260254,-0.206299
1493267274084,0.929443,0.208740,-0.135254
1493267274192,1.019775,0.387695,-0.009033
1493267274312,1.319580,0.445068,0.069580
1493267274468,1.291504,0.591064,0.003174
1493267274602,1.063232,0.415039,-0.092041
1493267274711,0.989502,0.264160,-0.209961
1493267274847,1.144043,0.252930,-0.229980
1493267274983,1.094727,0.179932,-0.141357
1493267275091,0.852783,0.287842,0.031738
1493267275223,1.243164,0.298584,-0.141357
1493267275381,1.327148,0.535889,0.142334
1493267275469,1.722412,0.603516,0.000732
1493267275629,1.103271,0.322021,-0.214355
1493267275762,1.103760,0.339600,-0.253662
1493267275893,1.096680,0.300781,-0.251709
1493267276017,0.723389,0.133789,-0.093506
1493267276126,1.341064,0.931641,-0.227051
1493267276260,0.569580,1.391602,0.031250
1493267276392,0.651367,1.362061,-0.053955
1493267276526,0.549316,0.662842,-0.869385
1493267276659,0.165039,0.385986,-0.114990
1493267276784,0.570068,0.684082,-0.416992
1493267276918,0.877441,0.872070,-0.680176
1493267277050,0.966309,0.671143,0.160889
1493267277189,0.410156,0.508545,-0.117432
1493267277297,0.623779,1.085449,0.147705
1493267277433,0.526611,1.162354,0.269043
1493267277565,0.362793,0.500000,-0.006104
1493267277705,0.647705,0.314209,0.066406
1493267277832,1.263916,0.255615,-0.175537
1493267277962,1.352295,0.682617,-0.159180
1493267278070,0.604492,0.411377,-0.051758
1493267278203,0.944824,0.061768,0.017334
1493267278336,1.187988,0.988037,-0.039307
1493267278468,1.152588,0.563965,-0.188232
1493267278576,1.008545,0.299561,-0.097900
1493267278715,0.976074,0.206543,-0.092529
1493267278848,1.069824,0.052246,-0.140869
1493267278982,1.045898,0.388916,0.068604
1493267279117,1.055908,0.366455,-0.284424
1493267279258,1.098633,0.608643,0.253662
1493267279366,1.795898,0.566162,-0.294678
1493267279499,1.066406,0.500000,-0.110352
1493267279639,1.177002,0.271729,-0.275879
1493267279746,1.072266,0.194336,-0.141846
1493267279893,1.027832,0.174072,-0.099609
1493267280009,0.885498,0.221191,0.059082
1493267280142,1.292480,0.472656,-0.283203
1493267280274,1.190430,0.860596,-0.165039
1493267280413,1.033447,0.518066,-0.122559
1493267280522,1.023926,0.351318,-0.212402
1493267280655,0.960205,0.206543,-0.180908
1493267280788,1.019531,0.218506,-0.231445
1493267280922,0.767822,0.268066,0.048828
1493267281059,0.917969,0.232910,-0.015137
1493267281176,1.225098,0.520752,-0.098877
1493267281308,1.091553,0.956787,-0.258057
1493267281441,0.935791,0.496094,-0.080811
1493267281576,0.900146,0.387939,-0.202393
1493267281683,1.114014,0.221436,-0.178711
1493267281816,1.249756,0.185547,-0.161865
1493267281954,0.698975,0.218994,0.250732
1493267282087,0.936768,0.148926,-0.090576
1493267282220,1.160645,0.674805,0.001221
1493267282353,1.365967,0.819580,-0.264893
1493267282481,0.951904,0.585205,-0.173828
1493267282618,1.083252,0.377930,-0.175537
1493267282751,1.177734,0.231201,-0.115967
1493267282858,1.032227,0.037842,-0.104980
1493267282991,0.911865,0.244141,0.114502
1493267283127,1.343506,0.364502,-0.292480
1493267283262,1.284180,0.566650,-0.071045
1493267283394,1.306885,0.491943,-0.103516
1493267283500,1.004150,0.377197,-0.059570
1493267283636,0.980225,0.185059,-0.119629
1493267283761,1.099365,0.249023,-0.203369
1493267283890,0.883545,0.355225,-0.036377
1493267284013,0.749023,0.163330,-0.036377
1493267284146,1.109863,0.781494,0.163818
1493267284278,0.914795,0.878662,-0.195312
1493267284420,0.976807,0.732178,-0.237061
1493267284553,0.912109,0.368652,-0.196777
1493267284686,0.979492,0.175293,-0.149902
1493267284794,1.283447,0.103271,-0.278809
1493267284936,0.838135,0.331055,0.173584
1493267285066,1.180420,0.270508,-0.316162
1493267285203,1.299072,0.606689,0.080322
1493267285341,1.444824,0.333496,0.049805
1493267285448,0.957031,0.355225,-0.048340
1493267285583,0.955566,0.259033,-0.143066
1493267285722,1.168945,0.293457,-0.262695
1493267285854,0.909668,0.261230,-0.103271
1493267285962,0.703125,0.206787,0.230469
1493267286098,1.060791,0.281494,-0.010498
1493267286233,1.300293,0.724609,-0.020264
1493267286346,1.094238,0.372314,-0.017578
1493267286501,0.617188,0.383057,-0.031494
1493267286610,1.079834,0.183350,-0.136719
1493267286744,1.441406,0.245850,-0.256104
1493267286885,0.606201,0.306885,0.311523
1493267286994,0.810791,0.066895,-0.166504
1493267287131,1.124023,0.748535,0.134766
1493267287247,1.626709,0.836426,-0.370117
1493267287382,0.885742,0.465576,-0.127930
1493267287516,0.771729,0.299316,-0.148193
1493267287650,1.145264,0.208984,-0.180420
1493267287783,1.101807,0.215820,-0.164307
1493267287916,0.695801,0.344238,0.143066
1493267288023,1.232422,0.343506,-0.119873
1493267288157,1.173584,0.741699,0.047607
1493267288290,1.208984,0.368896,-0.146484
1493267288422,0.887207,0.329346,-0.102051
1493267288541,1.068359,0.234375,-0.166748
1493267288673,1.010010,-0.108398,-0.147705
1493267288807,0.911865,0.350586,0.103027
1493267288931,1.091064,0.214844,-0.202148
1493267289066,1.164551,0.803711,0.267822
1493267289198,1.769531,0.888428,-0.601074
1493267289331,1.096436,0.400391,-0.057373
1493267289439,1.166016,0.325928,-0.313477
1493267289595,1.078125,0.122559,-0.162842
1493267289705,1.055176,0.322021,-0.132568
1493267289839,1.148682,0.331299,0.020752
1493267289969,1.354980,0.408447,0.158691
1493267290110,1.226318,0.754395,0.053467
1493267290231,1.199707,0.360840,-0.099854
1493267290373,1.025146,0.448975,-0.190430
1493267290481,1.106689,0.225586,-0.239014
1493267290616,0.920654,0.291992,-0.087402
1493267290752,0.767334,0.178223,0.028564
1493267290885,0.876953,0.162842,-0.047363
1493267291001,1.328125,0.883789,0.008057
1493267291133,1.699463,0.611816,-0.178223
1493267291271,1.009277,0.633789,-0.209229
1493267291383,0.744629,0.254150,-0.120117
1493267291521,1.134033,0.241211,-0.260986
1493267291654,1.049316,0.260010,-0.191895
1493267291787,0.713379,0.256104,0.120117
1493267291921,1.191650,0.536133,0.208008
1493267292029,1.112305,0.907959,-0.093506
1493267292158,0.875000,0.645020,-0.186523
1493267292293,0.783447,0.378662,-0.212891
1493267292431,0.999756,0.212402,-0.153809
1493267292565,1.060547,0.154297,-0.155273
1493267292701,0.907715,0.335938,0.069580
1493267292805,1.020996,0.313965,-0.119385
1493267292949,1.041748,0.516357,-0.036377
1493267293086,1.419922,0.661621,-0.041016
1493267293215,1.079590,0.439453,-0.169678
1493267293329,1.019531,0.174072,-0.157471
1493267293463,1.158447,0.286621,-0.189697
1493267293596,0.861328,0.174316,-0.110352
1493267293707,0.770996,0.291260,0.168213
1493267293868,1.387451,0.462646,-0.113037
1493267293976,1.348145,0.800293,0.021973
1493267294110,1.243164,0.450928,-0.210205
1493267294251,0.961182,0.364014,-0.149414
1493267294387,1.213135,0.228271,-0.259277
1493267294496,0.958496,0.226807,-0.117188
1493267294637,0.763916,0.335693,0.025391
1493267294745,1.192627,0.424805,0.064697
1493267294878,1.274170,0.519287,0.155518
1493267295015,1.663330,0.392334,-0.068359
1493267295149,1.095459,0.251465,-0.114258
1493267295283,0.918213,0.368164,-0.160645
1493267295402,1.238770,0.330811,-0.190430
1493267295535,1.105469,-0.018555,-0.383301
1493267295667,0.737061,0.296387,0.080811
1493267295800,1.119141,0.561523,0.004150
1493267295905,1.206299,0.533936,0.118164
1493267296038,1.066895,0.408936,-0.113770
1493267296172,0.830078,0.296875,-0.084961
1493267296308,0.905762,0.218994,-0.143066
1493267296442,1.140625,0.251221,-0.253174
1493267296560,0.591553,0.344238,0.112793
1493267296694,0.926514,0.241943,0.034668
1493267296829,1.166260,0.826416,0.204102
1493267296961,1.528320,1.145508,-0.447510
1493267297095,1.068359,0.413574,-0.185303
1493267297258,0.878418,0.266846,-0.208008
1493267297339,0.955322,0.194336,-0.139648
1493267297470,0.907227,0.336182,-0.032227
1493267297640,1.105957,0.351074,-0.025879
1493267297712,1.309814,0.891357,0.106445
1493267297865,1.435303,0.664307,-0.222900
1493267297975,1.014648,0.537109,-0.147705
1493267298140,0.917725,0.243164,-0.221924
1493267298251,1.214600,0.236816,-0.164307
1493267298383,1.081543,0.135742,-0.149414
1493267298507,0.824951,0.384033,0.123779
1493267298652,1.189941,0.288330,0.003662
1493267298771,1.289307,0.949951,-0.017822
1493267298916,1.335205,0.525879,-0.315186
1493267299059,1.197754,0.466064,-0.205078
1493267299161,1.036377,0.253662,-0.220703
1493267299296,0.958008,0.253906,-0.202881
1493267299403,0.996338,0.190918,-0.186279
1493267299535,1.028320,0.431152,0.091309
1493267299674,1.285156,0.419189,0.038574
1493267299806,1.049072,0.684326,-0.059570
1493267299915,1.358398,0.617188,-0.291504
1493267300048,1.012695,0.286377,-0.173828
1493267300183,0.803467,0.244141,-0.182129
1493267300315,0.728027,0.206299,-0.137939
1493267300452,0.825684,0.100342,-0.153320
1493267300560,1.696533,0.413574,-0.062012
1493267300694,1.361572,0.484375,0.062744
1493267300830,0.894287,0.945068,0.171875
1493267300962,1.962402,0.658936,-0.494141
1493267301096,1.595703,0.359131,-0.210205
1493267301230,1.117188,0.313477,-0.252441
1493267301333,0.612793,0.157227,-0.041748
1493267301483,0.772949,0.138672,0.133057
1493267301615,1.961182,0.552734,-0.181641
1493267301753,1.125977,0.582520,0.001221
1493267301862,1.183105,0.531006,0.029053
1493267301998,1.116455,0.530029,-0.102783
1493267302131,1.216553,0.340332,-0.278320
1493267302235,1.152100,0.181396,-0.198242
1493267302396,0.749268,0.306152,-0.209717
1493267302540,0.837646,0.149414,-0.113037
1493267302681,1.557617,0.368408,-0.079834
1493267302789,1.080078,0.553711,-0.029541
1493267302896,1.155518,0.511230,0.119141
1493267303038,1.574463,0.377686,-0.124023
1493267303151,1.056641,0.358643,-0.221924
1493267303285,0.879639,0.162842,-0.160645
1493267303399,0.986084,0.284180,-0.178955
1493267303558,0.924316,0.072998,-0.090088
1493267303666,1.419189,0.552734,0.026123
1493267303809,1.003906,0.562500,-0.109131
1493267303941,1.070557,0.411621,0.119385
1493267304075,1.621338,0.506104,-0.283203
1493267304179,1.361084,0.280762,-0.366455
1493267304341,0.947998,0.215332,-0.135254
1493267304451,0.611816,0.127930,-0.071533
1493267304577,1.237061,0.143066,-0.186523
1493267304709,1.535889,0.660156,-0.159180
1493267304842,1.129883,0.353027,-0.058350
1493267304957,1.045410,0.461670,0.177002
1493267305093,1.561279,0.380615,-0.260498
1493267305225,1.347412,0.292480,-0.298096
1493267305360,1.099121,0.264160,-0.235107
1493267305496,0.661621,0.166748,-0.051514
1493267305606,1.201172,0.166992,-0.203125
1493267305765,1.730225,0.676758,-0.160156
1493267305881,0.988281,0.516602,0.054199
1493267305996,1.020996,0.303955,0.139648
1493267306140,1.411377,0.477051,-0.203613
1493267306259,1.307617,0.251953,-0.188721
1493267306393,1.146973,0.241211,-0.255859
1493267306500,0.750977,0.152832,-0.044189
1493267306642,1.155029,0.297852,-0.102539
1493267306778,1.598145,0.565674,-0.284424
1493267306911,1.290283,0.468994,0.065186
1493267307050,1.517578,0.483643,-0.003418
1493267307187,1.240479,0.427246,-0.190186
1493267307293,1.374268,0.169678,-0.224609
1493267307421,1.117188,0.281250,-0.302734
1493267307554,0.597900,0.042969,-0.017334
1493267307689,1.589111,0.280273,-0.085205
1493267307823,1.279053,0.555664,0.075684
1493267307934,1.137207,0.240479,0.046631
1493267308082,1.405029,0.699463,-0.221680
1493267308195,1.086670,0.361328,-0.128174
1493267308327,1.159180,0.136963,-0.226318
1493267308461,0.957275,0.203613,-0.188477
1493267308593,0.991211,0.259521,-0.052979
1493267308725,1.083740,0.292480,0.034424
1493267308833,1.120361,0.377197,-0.017578
1493267308990,1.169434,0.692139,0.063721
1493267309099,1.258789,0.610352,-0.076904
1493267309232,1.074219,0.328857,-0.184082
1493267309361,0.938965,0.132080,-0.200928
1493267309503,0.906738,0.172852,-0.251465
1493267309614,1.497559,0.406738,-0.074219
1493267309748,0.923340,0.240479,0.008789
1493267309892,1.066895,0.383301,-0.159912
1493267310042,0.914062,0.828613,0.022949
1493267310150,1.238770,0.479248,-0.149414
1493267310289,1.036621,0.278076,-0.109619
1493267310395,1.173340,0.191162,-0.145020
1493267310536,1.031006,0.055908,-0.075439
1493267310667,1.191895,0.376953,0.073975
1493267310770,1.008057,0.291260,-0.132812
1493267310932,1.095703,0.403076,-0.035400
1493267311053,0.999268,0.406982,-0.037598
1493267311187,1.138916,0.508789,-0.026367
1493267311323,1.214600,0.203613,-0.170410
1493267311432,1.078125,0.238770,-0.171875
1493267311569,0.938477,0.175293,-0.108154
1493267311703,1.142822,0.278564,-0.084961
1493267311835,1.156494,0.400635,-0.095947
1493267311948,1.040283,0.441162,-0.063232
1493267312080,1.494629,0.428223,-0.087891
1493267312212,0.900391,0.389893,-0.107666
1493267312345,0.857666,0.148438,-0.182129
1493267312481,1.310303,0.279785,-0.262695
1493267312614,0.996582,0.190186,-0.179932
1493267312724,0.829102,0.251221,0.110352
1493267312861,1.064941,0.324219,-0.052246
1493267312989,1.117432,0.530029,-0.062744
1493267313125,1.223633,0.392578,-0.178955
1493267313250,0.817139,0.307617,-0.111084
1493267313359,0.912354,0.251465,-0.222412
1493267313493,1.255859,0.221924,-0.246094
1493267313645,0.634521,0.251221,0.132812
1493267313753,0.796875,0.221680,-0.035645
1493267313875,0.866943,0.304932,0.147949
1493267314008,1.272461,0.447021,-0.108154
1493267314142,1.311768,0.475830,-0.253906
1493267314290,0.775146,0.312256,-0.199707
1493267314421,0.877686,0.251953,-0.157959
1493267314529,0.924316,0.331543,-0.194824
1493267314665,1.302246,0.141602,-0.097656
1493267314803,0.801514,0.248535,0.020996
1493267314935,0.837158,0.358154,0.015625
1493267315043,1.045166,0.368652,-0.000488
1493267315175,1.118408,0.484863,-0.120117
1493267315308,0.818115,0.259521,-0.104980
1493267315442,0.841797,0.156982,-0.155029
1493267315576,1.069824,0.198730,-0.153320
1493267315708,1.107666,0.496826,-0.021484
1493267315841,0.822998,0.388428,-0.134766
1493267315948,1.053955,0.153809,-0.035400
1493267316081,1.365479,0.610840,-0.169434
1493267316212,1.019287,0.344971,-0.093262
1493267316354,0.760742,0.221436,-0.134033
1493267316467,0.991455,0.154541,-0.182861
1493267316601,1.325684,0.244385,-0.326416
1493267316733,0.725098,0.386475,0.201904
1493267316862,0.848389,0.050293,-0.138916
1493267317017,1.130371,0.282471,0.025635
1493267317109,1.144531,0.468506,-0.136230
1493267317242,0.815430,0.323975,-0.046143
1493267317375,0.729248,0.186768,-0.108643
1493267317506,1.279541,0.272461,-0.235596
1493267317641,0.974609,0.360107,-0.021973
1493267317774,0.550537,0.254639,-0.008789
1493267317913,0.760254,0.283203,0.031494
1493267318016,1.308105,0.660889,-0.079834
1493267318149,0.875000,0.398438,-0.167480
1493267318294,0.685303,0.204346,-0.032227
1493267318427,0.885254,0.312256,-0.108398
1493267318536,1.245361,0.324707,-0.252197
1493267318688,0.743652,0.464600,0.231445
1493267318792,0.636230,0.150391,-0.078857
1493267318925,0.885254,0.410156,0.147217
1493267319064,1.615723,0.479736,-0.155518
1493267319197,0.874512,0.611572,0.102783
1493267319305,0.673828,0.292236,-0.074707
1493267319462,1.231445,0.472656,-0.059570
1493267319577,1.137451,0.244873,-0.211182
1493267319711,0.530762,0.364746,0.228760
1493267319843,0.913330,0.155029,0.223389
1493267319951,1.428467,0.454102,0.005371
1493267320084,1.060547,0.377197,0.000977
1493267320218,0.665039,0.283691,-0.037354
1493267320361,0.799561,0.236572,-0.109131
1493267320467,1.359131,0.257568,-0.218506
1493267320600,0.702637,0.329102,0.243652
1493267320743,0.667236,0.108887,-0.103027
1493267320878,1.055664,0.551758,0.228516
1493267321016,1.918945,0.701416,-0.351807
1493267321148,0.949219,0.315918,-0.057129
1493267321255,0.745605,0.208008,-0.173828
1493267321388,1.105713,0.225586,-0.098877
1493267321521,1.199219,0.172119,-0.198730
1493267321653,0.876953,0.381836,0.104248
1493267321786,0.900146,0.212158,-0.111328
1493267321892,1.177246,0.386963,0.039062
1493267322026,1.433594,0.703125,-0.123535
1493267322166,0.913574,0.224365,-0.172852
1493267322294,0.989258,0.194824,-0.128174
1493267322403,0.915771,0.260010,-0.166260
1493267322541,1.172119,0.405762,-0.268799
1493267322681,0.801514,0.461670,0.096924
1493267322793,1.171143,0.385010,-0.016846
1493267322950,1.378174,0.659912,0.026855
1493267323058,1.264404,0.526367,-0.378418
1493267323191,0.856445,0.284668,-0.248047
1493267323326,1.124756,0.337402,-0.386230
1493267323452,1.138672,0.194336,-0.429688
1493267323588,0.732422,0.358887,0.137207
1493267323721,0.978027,0.229492,0.242432
1493267323827,1.349854,0.720703,0.116455
1493267323985,1.245850,0.571777,-0.050293
1493267324095,0.828125,0.320068,-0.224854
1493267324236,1.003418,0.262207,-0.342285
1493267324363,1.270264,0.214111,-0.359863
1493267324496,0.845459,0.183105,0.071533
1493267324612,0.884277,0.311523,0.007324
1493267324753,1.355469,0.535156,0.036133
1493267324887,1.384033,0.645264,0.020508
1493267324994,0.796875,0.248291,-0.137207
1493267325154,0.897217,0.187500,-0.312256
1493267325266,1.051758,0.344482,-0.158691
1493267325394,0.926270,0.270752,0.123047
1493267325529,0.714600,0.086182,-0.028809
1493267325661,0.997803,0.631348,0.227783
1493267325794,1.431885,0.792480,-0.278320
1493267325900,1.020752,0.479492,-0.113037
1493267326052,0.812500,0.290771,-0.184082
1493267326157,1.046387,0.222168,-0.172852
1493267326300,1.071045,0.167480,-0.103271
1493267326440,0.920654,0.290283,0.261719
1493267326546,1.139648,0.252686,0.104248
1493267326686,1.084473,0.660645,-0.034180
1493267326818,1.394043,0.500244,-0.105225
1493267326951,0.940430,0.351074,-0.159180
1493267327090,1.076660,0.186035,-0.147949
1493267327257,1.108398,0.077148,-0.140137
1493267327390,0.860596,0.388184,0.109863
1493267327533,0.997559,0.410889,-0.081787
1493267327633,1.207764,0.916016,-0.057617
1493267327731,1.421143,1.078369,-0.316162
1493267327847,1.202881,0.438965,-0.240234
1493267327985,0.961914,0.143311,-0.158936
1493267328108,0.895508,0.213135,-0.174805
1493267328240,1.198242,0.391846,-0.019043
1493267328379,0.985840,0.231934,-0.012451
1493267328486,1.429688,0.679199,-0.109375
1493267328612,1.492432,1.092773,-0.228027
1493267328748,1.266357,0.271973,-0.164062
1493267328887,0.861328,0.281250,-0.083740
1493267328993,1.313477,0.349854,-0.243408
1493267329151,1.082275,0.170898,-0.228516
1493267329267,0.736084,0.269287,0.145264
1493267329400,1.040039,0.336182,0.164307
1493267329532,1.281494,0.795410,-0.201904
1493267329666,0.945312,0.638916,-0.047852
1493267329773,0.850342,0.389404,-0.140137
1493267329917,0.871338,0.139893,-0.118652
1493267330050,1.063477,0.294678,-0.196533
1493267330183,0.962158,0.361084,0.156006
1493267330321,0.750244,0.171631,-0.094727
1493267330436,1.206055,0.633545,0.076904
1493267330571,1.701904,0.696533,-0.066650
1493267330701,1.067139,0.360107,-0.095459
1493267330843,0.705566,0.226562,-0.096436
1493267330952,1.215088,0.322510,-0.179932
1493267331098,1.058838,0.262695,-0.154541
1493267331205,0.624268,0.299316,0.038086
1493267331337,0.921631,0.272217,0.087402
1493267331470,1.307861,1.010986,-0.152344
1493267331603,1.032959,0.379883,-0.240723
1493267331726,0.642578,0.442627,-0.070557
1493267331859,1.087402,0.337646,-0.209229
1493267331997,1.280518,0.169922,-0.145508
1493267332116,0.771240,0.370117,0.320068
1493267332254,0.826660,0.046875,-0.112549
1493267332373,1.208008,0.538086,0.214111
1493267332514,1.485352,0.781982,-0.143066
1493267332650,1.083740,0.304688,-0.077637
1493267332754,0.803955,0.251221,-0.077881
1493267332891,1.070068,0.264893,-0.186768
1493267333025,1.185303,0.145264,-0.090576
1493267333157,0.917725,0.278809,0.221680
1493267333271,1.085449,0.266357,-0.169434
1493267333431,1.096924,0.488525,0.029541
1493267333539,1.685791,0.594482,-0.245605
1493267333682,0.993408,0.450684,0.035889
1493267333815,1.049316,0.191162,-0.208984
1493267333928,1.114990,0.263672,-0.147461
1493267334055,1.206299,0.272705,-0.230713
1493267334193,0.968750,0.218750,0.109863
1493267334329,1.190918,0.206787,-0.084961
1493267334443,1.076904,0.573730,0.008545
1493267334574,1.605225,0.497559,-0.221191
1493267334708,1.139160,0.390625,-0.128662
1493267334840,0.999023,0.259521,-0.162109
1493267334958,0.845947,0.243408,-0.133301
1493267335090,0.608398,0.246582,0.003906
1493267335225,1.251709,0.425781,-0.337402
1493267335360,1.114746,0.617432,0.026367
1493267335492,1.063232,0.165039,-0.095459
1493267335625,0.744141,0.241455,0.042236
1493267335739,0.929688,0.255859,-0.167480
1493267335874,1.078369,0.414062,-0.062500
1493267335999,0.774902,0.437988,-0.036133
1493267336143,0.917725,0.612549,-0.172852
1493267336268,0.950195,0.407471,-0.168945
1493267336376,0.975342,0.394287,-0.008789
1493267336515,1.076660,0.241455,-0.062256
1493267336648,0.699219,0.383057,0.036865
1493267336780,0.970459,0.269043,-0.204834
1493267336919,0.816650,0.343262,-0.119385
1493267337026,0.893799,0.291992,-0.133301
1493267337159,1.097656,0.333740,-0.078369
1493267337292,1.133789,0.282715,-0.076904
1493267337424,0.815674,0.335449,-0.175293
1493267337550,0.882812,0.327393,-0.201172
1493267337685,0.959717,0.382080,-0.192871
1493267337793,1.066162,0.339600,-0.175781
1493267337952,0.842041,0.326904,-0.023682
1493267338070,0.967773,0.233887,-0.076416
1493267338199,0.864014,0.335449,0.099609
1493267338331,0.966797,0.328857,-0.009521
1493267338463,1.054688,0.417725,-0.100342
1493267338580,0.980469,0.335693,-0.008789
1493267338712,0.960205,0.391357,-0.206787
1493267338853,0.874023,0.315186,-0.178711
1493267338969,0.955811,0.419189,-0.116699
1493267339101,0.879639,0.349609,0.011963
1493267339234,0.816406,0.320557,0.048584
1493267339373,0.951172,0.308594,0.006836
1493267339480,1.047607,0.209961,-0.119141
1493267339612,0.919678,0.436035,-0.474609
1493267339751,0.839844,0.309814,-0.393799
1493267339859,0.761475,0.254150,-0.030518
1493267340002,0.935791,0.348389,-0.087891
1493267340134,1.074951,0.479248,-0.045166
1493267340269,1.271729,0.603027,0.035156
1493267340404,1.066650,0.451172,-0.302734
1493267340515,0.914551,0.583008,-0.478271
1493267340652,0.688965,0.635254,-0.397705
1493267340783,0.418701,0.622803,-0.419678
1493267340898,0.113770,0.761963,-0.662842
1493267341033,-0.133789,0.572266,-0.743652
1493267341166,0.016602,0.465576,-0.650391
1493267341299,-0.098633,0.469727,-0.841553
1493267341415,-0.161377,0.595703,-0.854492
1493267341550,-0.155273,0.663086,-0.857666
1493267341683,-0.185791,0.426025,-0.785156
1493267341816,-0.132568,0.557373,-0.734375
1493267341954,-0.027832,0.917480,-0.575439
1493267342086,0.047119,0.920410,-0.931641
1493267342194,0.003662,0.583984,-0.453613
1493267342326,-0.093994,0.557617,-0.557861
1493267342456,-0.407227,1.099609,-0.765381
1493267342618,-0.133301,0.837158,-0.826660
1493267342725,-0.017822,0.635498,-0.611572
1493267342853,-0.052246,0.798096,-0.545410
1493267342967,0.019531,0.888428,-0.719971
1493267343099,0.061768,0.748535,-0.865723
1493267343232,0.001221,0.568115,-0.523926
1493267343364,-0.105713,0.874512,-0.669189
1493267343497,-0.237793,0.596924,-0.785156
1493267343604,-0.157227,0.472900,-1.026611
1493267343749,-0.070801,0.497070,-0.922607
1493267343893,-0.138916,0.382568,-0.663330
1493267344001,-0.053223,0.458496,-1.129150
1493267344145,0.134277,0.586426,-0.982178
1493267344278,-0.017090,0.461914,-0.820312
1493267344385,-0.146729,0.313232,-0.913818
1493267344529,-0.063232,0.246826,-1.115234
1493267344661,0.023682,0.201172,-0.896729
1493267344794,0.116943,0.175049,-0.970703
1493267344907,0.148926,0.250244,-0.927002
1493267345040,0.078613,0.276367,-0.955078
1493267345176,0.044434,0.234619,-0.891113
1493267345285,0.076416,0.294922,-1.104492
1493267345443,0.206787,0.519287,-0.866455
1493267345550,0.426025,0.543213,-0.501709
1493267345683,0.589111,0.402100,-0.351807
1493267345828,0.875977,0.518555,-0.170654
1493267345960,0.925049,0.418701,-0.073486
1493267346068,1.559082,0.283447,-0.194824
1493267346207,0.913330,0.321533,-0.053955
1493267346321,0.863525,0.242920,-0.112061
1493267346482,1.088867,0.115479,-0.150146
1493267346617,1.435547,0.129883,-0.206055
1493267346723,0.718750,0.148193,0.002686
1493267346855,0.786377,0.180176,-0.091064
1493267346990,1.070312,0.289307,0.020020
1493267347124,1.552490,0.321533,-0.233887
1493267347225,1.017090,0.275879,-0.081787
1493267347385,0.795898,0.201660,-0.068115
1493267347493,1.188477,0.157959,-0.302002
1493267347625,1.073975,0.202637,-0.226807
1493267347764,0.800049,0.303467,-0.015137
1493267347895,0.750244,0.085449,0.046387
1493267348028,1.217773,0.268799,-0.150635
1493267348139,1.077637,0.334473,-0.375000
1493267348271,0.966064,0.141113,-0.359375
1493267348407,0.952637,0.274658,-0.237305
1493267348539,0.909180,0.278809,-0.318848
1493267348673,0.976074,0.188721,-0.206299
1493267348805,0.983643,0.204346,-0.220215
1493267348921,1.007080,0.100830,-0.010986
1493267349043,0.895752,0.048096,0.168701
1493267349175,0.850830,0.053955,0.183105
1493267349308,1.179443,0.276123,-0.013428
1493267349441,1.371826,0.258789,-0.087646
1493267349573,0.842773,0.356934,-0.019287
1493267349686,0.830322,0.209229,-0.136230
1493267349830,1.105469,0.169922,-0.155762
1493267349961,1.165283,0.282227,-0.139648
1493267350092,0.765381,0.203369,0.122803
1493267350231,0.792480,0.157959,-0.014404
1493267350345,1.120117,0.451904,0.002930
1493267350478,1.412842,0.615967,-0.053955
1493267350613,0.990723,0.372803,-0.080811
1493267350745,0.837891,0.158203,-0.024170
1493267350878,0.925537,0.196045,-0.122314
1493267350985,1.054443,0.132568,-0.010498
1493267351118,0.930908,0.270996,0.046875
1493267351251,0.865723,0.203369,-0.075195
1493267351389,1.075684,0.274170,-0.062256
1493267351497,0.945801,0.417969,-0.002686
1493267351629,1.348389,0.351807,-0.041992
1493267351762,1.102051,0.238281,-0.062256
1493267351894,0.976807,0.179199,-0.061523
1493267352027,0.858398,0.113037,-0.114258
1493267352145,0.949707,0.197021,-0.048584
1493267352279,1.143066,0.264648,0.118896
1493267352412,1.088623,0.255859,0.083252
1493267352545,1.016357,0.360107,-0.011719
1493267352657,1.027100,0.158447,0.077637
1493267352820,1.008301,0.183838,-0.038330
1493267352933,0.827148,0.167969,-0.061768
1493267353065,0.901855,0.153809,-0.052979
1493267353195,1.120605,0.270508,0.011719
1493267353331,1.049561,0.345215,0.105469
1493267353445,1.026123,0.380371,0.017334
1493267353583,1.033936,0.222168,0.047363
1493267353717,1.135254,0.038330,0.009521
1493267353824,0.978027,0.129150,0.200195
1493267353981,0.875732,0.078125,0.157959
1493267354088,0.923340,0.195312,0.140381
1493267354239,1.226562,0.112793,0.000732
1493267354360,0.867676,0.448730,-0.214844
1493267354471,0.808105,0.379150,-0.125977
1493267354606,0.856445,0.308838,-0.149902
1493267354742,1.019287,0.192139,-0.037354
1493267354871,1.164062,0.296875,-0.032471
1493267355008,0.703125,0.192139,0.100586
1493267355141,0.913330,0.306885,-0.105469
1493267355248,0.770264,0.384521,0.038086
1493267355382,0.943359,0.481445,0.009033
1493267355520,1.023438,0.375977,-0.096436
1493267355651,0.897949,0.212402,-0.127197
1493267355758,0.976318,0.319336,-0.174072
1493267355923,0.841797,0.358398,-0.078857
1493267356031,0.903076,0.430420,-0.080322
1493267356166,0.916260,0.396973,-0.039062
1493267356309,0.935059,0.395020,-0.055420
1493267356409,0.911621,0.383789,-0.087402
1493267356542,0.872314,0.378662,-0.106689
1493267356698,0.910645,0.402100,-0.118896
1493267356805,0.901367,0.406982,-0.096436
1493267356935,0.906738,0.388428,-0.092529
1493267357071,0.904541,0.367432,-0.102295
1493267357203,0.916748,0.375732,-0.109375
1493267357335,0.901611,0.376465,-0.109375
1493267357455,0.907959,0.394531,-0.108643
1493267357588,0.894775,0.413574,-0.102051
1493267357721,0.897217,0.434082,-0.115479
1493267357834,0.863037,0.420898,-0.111572
1493267357978,0.866455,0.466553,-0.125977
1493267358110,0.873047,0.436035,-0.135254
1493267358218,0.831543,0.516846,-0.118652
1493267358351,0.822266,0.507080,-0.123291
1493267358483,0.829590,0.528076,-0.114746
1493267358615,0.796631,0.642578,-0.104980
1493267358748,0.734131,0.759521,-0.139648
1493267358880,0.726807,1.192871,-0.129150
1493267359014,0.260254,0.924561,-0.556152
1493267359127,0.239990,0.506104,-0.605957
1493267359258,-0.091064,0.500732,-0.762695
1493267359416,-0.232666,0.439697,-0.808594
1493267359522,-0.346436,0.614990,-0.638184
1493267359656,-0.243896,0.838379,-0.568359
1493267359789,-0.600586,1.010742,-0.487549
1493267359927,-0.197510,0.632568,-0.390137
1493267360035,-0.156982,0.807617,-0.464355
1493267360166,-0.226074,1.013672,-0.365479
1493267360306,-0.228760,0.914551,-0.307861
1493267360415,-0.315186,0.952148,-0.582520
1493267360563,-0.336670,0.802734,-0.307617
1493267360671,-0.195557,0.923096,-0.146973
1493267360812,-0.268555,0.963867,-0.229248
1493267360944,-0.303955,0.960449,-0.211426
1493267361080,-0.332520,0.976807,-0.259033
1493267361193,-0.385742,0.998779,-0.311279
1493267361334,-0.222168,0.811523,-0.457275
1493267361460,-0.070312,0.880127,-0.316162
1493267361599,-0.036865,0.807129,-0.365723
1493267361731,-0.267822,0.901611,-0.382568
1493267361839,-0.684570,1.209473,-0.207520
1493267361977,-0.632568,0.729492,0.158691
1493267362112,-0.269531,0.824707,0.314941
1493267362245,-0.083008,0.979980,0.367676
1493267362353,0.036621,0.947021,0.260986
1493267362511,-0.459961,0.794678,0.018311
1493267362619,-0.427734,1.336182,-0.206299
1493267362758,-0.500732,1.239502,-0.277832
1493267362893,-0.333740,0.824463,-0.372070
1493267363001,-0.318848,0.779053,-0.259277
1493267363132,-0.211914,0.854492,-0.154297
1493267363264,-0.186279,1.057861,-0.214355
1493267363397,-0.189941,1.062988,-0.240479
1493267363530,-0.134766,0.995850,-0.184326
1493267363662,0.006104,0.983887,-0.116455
1493267363795,-0.038086,1.021484,-0.161377
1493267363909,-0.016846,0.905762,-0.109131
1493267364041,-0.109863,0.990723,-0.266602
1493267364173,-0.123535,0.994141,-0.176758
1493267364306,-0.053711,0.939453,0.067871
1493267364429,-0.079590,0.994385,0.024658
1493267364561,-0.058594,1.074951,0.089844
1493267364691,-0.007812,0.979248,0.100830
1493267364821,-0.006836,0.933838,0.209717
1493267364959,-0.013916,0.802734,0.134277
1493267365091,-0.025391,1.133057,-0.289062
1493267365234,-0.132812,0.835205,-0.425293
1493267365334,0.003662,0.941650,-0.499023
1493267365468,0.099365,0.814697,-0.277100
1493267365603,-0.011475,0.986084,-0.187744
1493267365733,-0.031006,0.886963,0.075439
1493267365863,-0.076172,0.811035,0.302246
1493267365999,-0.151123,0.901855,0.205322
1493267366105,-0.107666,0.920166,0.170898
1493267366239,-0.038818,1.060303,0.245117
1493267366367,0.208984,1.154297,0.200684
1493267366500,0.206787,0.804443,0.366211
1493267366664,0.097900,0.945557,0.228760
1493267366745,0.097656,0.872314,0.113281
1493267366878,0.106689,1.024414,0.145020
1493267367034,0.087402,1.171875,-0.100830
1493267367166,0.095703,0.968506,-0.215576
1493267367279,0.109375,0.842285,-0.183838
1493267367411,0.095703,0.900146,-0.145264
1493267367550,0.165039,1.060303,-0.208984
1493267367682,0.044922,1.070068,-0.096191
1493267367790,0.004883,1.081055,-0.046143
1493267367929,-0.007568,0.923340,-0.226074
1493267368061,-0.019775,1.007324,-0.296387
1493267368193,0.028076,0.966309,-0.245850
1493267368323,0.080322,0.889893,-0.192627
1493267368440,0.073486,1.013916,-0.159424
1493267368573,0.286133,0.970215,-0.247803
1493267368705,0.393799,0.962402,-0.345703
1493267368817,0.288818,0.880371,-0.263916
1493267368953,0.185547,0.833252,-0.283203
1493267369092,0.220947,0.941406,-0.341797
1493267369210,0.442383,1.074707,-0.477783
1493267369343,0.311768,0.869141,-0.275146
1493267369499,0.207275,0.791748,-0.240234
1493267369612,0.131592,0.971924,-0.240234
1493267369723,-0.036621,0.847412,-0.086182
1493267369852,-0.046143,1.034424,-0.093018
1493267369990,-0.124268,0.918213,-0.052734
1493267370123,0.178711,1.061768,-0.006104
1493267370255,0.437744,1.112305,-0.130371
1493267370367,0.283203,0.963135,-0.142578
1493267370502,0.281250,0.874268,0.117432
1493267370635,0.158691,0.949707,0.060059
1493267370779,0.346191,1.019775,-0.055908
1493267370883,0.474609,1.020996,-0.188721
1493267371044,0.227295,0.841064,-0.187500
1493267371154,0.185303,0.967285,-0.117432
1493267371285,0.232422,0.985107,-0.306396
1493267371419,0.448730,1.028564,-0.180176
1493267371526,0.232178,0.956543,0.008057
1493267371659,0.093018,0.720947,-0.239258
1493267371820,0.095703,1.062500,-0.014648
1493267371952,0.151855,1.073242,-0.089111
1493267372060,0.337646,1.194336,0.010986
1493267372199,0.300781,0.740723,-0.182861
1493267372332,0.241699,0.818604,-0.245361
1493267372445,0.211914,0.693359,-0.245117
1493267372577,0.212646,0.958984,-0.512695
1493267372710,0.256104,0.875488,-0.747803
1493267372824,0.162354,0.641113,-0.594482
1493267372962,0.195312,0.718262,-0.677734
1493267373095,-0.046143,0.632568,-0.739258
1493267373228,0.002441,0.636475,-0.755859
1493267373363,0.140625,1.009277,-0.602783
1493267373470,0.463135,0.854248,-0.179443
1493267373603,0.223877,0.774414,-0.141113
1493267373757,0.265869,0.698486,-0.447998
1493267373870,0.243896,0.934814,-0.702637
1493267374013,-0.014893,0.976562,-0.795166
1493267374120,0.057373,1.039551,-0.941895
1493267374248,0.028809,0.716309,-0.948486
1493267374381,0.088623,0.705322,-0.437012
1493267374523,0.397949,0.990234,-0.207031
1493267374644,0.160889,0.754150,-0.036865
1493267374775,0.363281,0.963623,-0.245117
1493267374910,0.302734,1.101562,-0.236328
1493267375043,0.228027,0.969971,-0.241455
1493267375150,0.313232,0.865967,-0.300537
1493267375293,0.340576,0.847168,-0.304688
1493267375426,0.330078,0.939697,-0.196777
1493267375535,0.251465,0.919189,-0.270020
1493267375702,0.205811,0.770264,-0.509521
1493267375810,0.268799,0.869629,-0.678223
1493267375949,0.286377,0.730225,-0.606445
1493267376081,0.313965,1.097656,-0.517822
1493267376213,0.191162,0.779785,-0.453125
1493267376321,0.159180,0.760498,-0.488037
1493267376479,0.241699,0.838135,-0.485107
1493267376586,0.327637,0.843018,-0.293457
1493267376720,0.234131,0.976562,-0.296387
1493267376859,0.144043,0.995117,-0.375488
1493267376966,0.215820,0.829834,-0.380615
1493267377098,0.063965,0.891846,-0.378906
1493267377233,0.024170,0.907471,-0.450195
1493267377364,0.064209,0.891113,-0.419434
1493267377500,0.103516,0.910645,-0.358154
1493267377635,0.174561,0.923828,-0.411377
1493267377743,0.115967,0.920166,-0.334961
1493267377876,0.104736,0.893311,-0.425293
1493267378009,0.089600,0.912109,-0.404541
1493267378142,0.049561,0.911621,-0.446533
1493267378274,0.021973,0.880615,-0.456787
1493267378406,0.054932,0.906494,-0.462646
1493267378533,0.054443,0.886719,-0.438721
1493267378642,0.048828,0.887695,-0.465088
1493267378773,0.071533,0.870117,-0.447021
1493267378916,0.064209,0.920654,-0.440186
1493267379055,0.031982,0.867676,-0.440430
1493267379184,0.007568,0.876953,-0.476562
1493267379317,0.083740,0.885010,-0.433105
1493267379424,0.116699,0.908936,-0.448242
1493267379561,0.029297,0.908691,-0.421631
1493267379695,0.077881,0.874756,-0.445801
1493267379811,0.073730,0.905518,-0.383057
1493267379947,0.028564,0.910156,-0.444336
1493267380065,0.010254,0.887451,-0.469971
1493267380197,0.020264,0.876953,-0.459229
1493267380330,0.012451,0.888916,-0.480225
1493267380474,0.007568,0.883545,-0.480225
1493267380582,0.026367,0.863037,-0.462402
1493267380720,0.000977,0.878174,-0.501709
1493267380859,0.020996,0.854004,-0.484131
1493267380966,0.005127,0.863525,-0.500244
1493267381119,0.010498,0.894043,-0.480469
1493267381233,0.027344,0.863281,-0.487061
1493267381365,0.049316,0.909424,-0.450928
1493267381497,0.037598,0.887939,-0.429688
1493267381634,0.105713,0.912842,-0.418945
1493267381750,0.199951,0.890869,-0.430420
1493267381883,0.181885,0.911865,-0.352783
1493267382015,0.182617,0.882324,-0.386230
1493267382148,0.146484,0.897461,-0.431641
1493267382299,0.217529,0.900635,-0.408691
1493267382406,0.212402,0.870361,-0.393311
1493267382547,0.192383,0.872803,-0.416504
1493267382654,0.225830,0.889160,-0.416260
1493267382798,0.125977,0.890625,-0.414795
1493267382926,0.131348,0.859375,-0.517822
1493267383058,0.160645,0.777344,-0.487305
1493267383166,0.040039,0.885986,-0.465576
1493267383310,0.018555,0.849365,-0.572266
1493267383443,0.012695,0.840332,-0.528320
1493267383579,0.019287,0.809326,-0.542969
1493267383686,0.083008,0.792236,-0.567139
1493267383819,0.019043,0.823242,-0.536621
1493267383952,0.022461,0.810791,-0.578369
1493267384084,-0.004395,0.750244,-0.628662
1493267384216,-0.020508,0.803467,-0.613281
1493267384350,-0.004883,0.739502,-0.624512
1493267384483,0.025635,0.753662,-0.640869
1493267384596,-0.030762,0.754639,-0.647217
1493267384729,-0.025391,0.760010,-0.676270
1493267384859,-0.007080,0.740479,-0.640625
1493267384991,-0.001221,0.765869,-0.623535
1493267385124,-0.023438,0.799316,-0.649170
1493267385258,0.017822,0.727783,-0.628662
1493267385390,0.002930,0.818359,-0.662354
1493267385498,0.046875,0.728271,-0.601807
1493267385630,0.042969,0.769775,-0.641602
1493267385763,0.019043,0.809326,-0.668701
1493267385895,0.024170,0.733154,-0.627686
1493267386028,0.006592,0.733154,-0.661377
1493267386164,-0.032715,0.758301,-0.662842
1493267386272,0.054199,0.792236,-0.618408
1493267386415,0.022217,0.792480,-0.605713
1493267386547,0.000000,0.800537,-0.586182
1493267386655,0.002197,0.891357,-0.520752
1493267386788,-0.035156,0.932861,-0.464111
1493267386920,-0.096680,0.950195,-0.422363
1493267387053,-0.074219,0.872803,-0.316895
1493267387185,-0.006836,0.980225,-0.333740
1493267387318,0.001953,0.975342,-0.333008
1493267387444,0.078369,0.917969,-0.154785
1493267387576,0.082520,0.984863,-0.081787
1493267387709,0.175537,0.966553,-0.001465
1493267387825,0.249268,0.993164,0.025879
1493267387945,0.276123,0.865479,0.220947
1493267388083,0.363281,0.931396,0.158203
1493267388214,0.327881,0.937256,0.247314
1493267388347,0.374268,0.914062,0.300293
1493267388486,0.331299,0.965576,0.251709
1493267388590,0.313965,0.894287,0.271484
1493267388749,0.277588,0.874512,0.266602
1493267388882,0.411621,0.913574,0.300781
1493267389014,0.402100,0.874268,0.342285
1493267389122,0.401367,0.828857,0.361572
1493267389254,0.368896,0.780518,0.385010
1493267389387,0.372559,0.882080,0.315186
1493267389492,0.369873,0.870117,0.225830
1493267389663,0.275391,0.839355,0.102783
1493267389769,0.230225,0.991211,-0.030518
1493267389902,0.235840,1.038818,-0.193604
1493267390030,0.089844,1.038574,-0.247803
1493267390160,0.001465,0.952637,-0.218018
1493267390294,0.001465,0.949707,-0.153320
1493267390430,-0.000977,0.990723,-0.220947
1493267390555,-0.102051,0.944824,-0.297119
1493267390666,-0.036865,1.033447,-0.398926
1493267390823,0.001465,0.910400,-0.267334
1493267390932,-0.011719,0.975830,-0.326416
1493267391064,-0.061523,0.936768,-0.359131
1493267391197,0.044434,0.968994,-0.313477
1493267391332,-0.027100,0.930420,-0.305664
1493267391442,0.021240,0.924072,-0.297119
1493267391599,-0.052979,0.939453,-0.313721
1493267391707,-0.044922,0.925781,-0.333984
1493267391840,-0.026855,0.912354,-0.335693
1493267391972,-0.046387,0.895264,-0.410889
1493267392104,-0.024658,0.933105,-0.437256
1493267392240,-0.042969,0.924561,-0.455078
1493267392347,0.008301,0.871094,-0.398438
1493267392484,-0.064209,0.841064,-0.402344
1493267392614,-0.049072,0.912109,-0.429688
1493267392747,-0.038818,0.947754,-0.419189
1493267392864,-0.000732,0.905029,-0.391113
1493267392997,-0.033936,0.916504,-0.425781
1493267393129,-0.064941,0.868896,-0.416504
1493267393262,0.040527,0.948975,-0.437500
1493267393394,-0.003662,0.886475,-0.396729
1493267393527,0.007568,0.937012,-0.402832
1493267393660,-0.046875,0.885254,-0.390625
1493267393775,0.016602,0.948242,-0.441162
1493267393896,-0.043701,0.920166,-0.435059
1493267394024,-0.031250,0.914551,-0.409180
1493267394165,0.002441,0.927734,-0.407959
1493267394298,-0.074951,0.928467,-0.363525
1493267394431,-0.112305,1.062012,-0.346191
1493267394544,-0.139160,1.073486,-0.336182
1493267394676,-0.078857,0.940430,-0.320801
1493267394806,-0.061768,0.844482,-0.140625
1493267394948,-0.061523,0.838867,-0.080566
1493267395099,-0.093018,1.029541,0.016357
1493267395207,-0.015625,1.060791,-0.017578
1493267395321,-0.098389,0.978760,-0.046631
1493267395452,-0.221680,0.910645,-0.094482
1493267395581,-0.325195,0.748047,0.076172
1493267395720,0.052002,1.638672,-0.790771
1493267395852,-0.197754,0.888672,-0.101807
1493267395988,-0.222168,0.944336,-0.063477
1493267396098,-0.184570,0.917725,-0.265625
1493267396237,-0.163330,0.927979,-0.283203
1493267396381,-0.164551,0.991943,-0.332275
1493267396493,-0.154785,0.973877,-0.361084
1493267396625,-0.188477,0.913574,-0.443848
1493267396758,-0.066650,0.957764,-0.412354
1493267396872,-0.133545,0.856201,-0.443359
1493267397001,-0.054688,0.831787,-0.324707
1493267397137,-0.139648,0.885498,-0.435059
1493267397270,-0.135742,0.963135,-0.444092
1493267397408,-0.128662,0.902344,-0.419189
1493267397543,-0.103027,0.882324,-0.477051
1493267397660,-0.063721,0.834229,-0.360596
1493267397792,-0.082275,0.900391,-0.427246
1493267397927,-0.177002,0.923096,-0.452393
1493267398034,-0.121582,0.921631,-0.483887
1493267398192,-0.053955,0.933594,-0.449219
1493267398300,-0.088867,0.894531,-0.421387
1493267398432,-0.129639,0.937500,-0.390381
1493267398566,-0.093994,0.926025,-0.353271
1493267398695,-0.181152,0.917725,-0.321533
1493267398806,-0.246094,1.010254,-0.302734
1493267398940,-0.237549,0.970215,-0.286621
1493267399097,-0.200439,0.923584,-0.272949
1493267399204,-0.157227,0.878906,-0.111816
1493267399347,-0.151611,0.850098,-0.043945
1493267399476,-0.286377,1.032227,-0.043457
1493267399608,-0.189697,1.087402,-0.038574
1493267399715,-0.204346,0.935547,0.034668
1493267399848,-0.214355,1.000977,0.043457
1493267399981,-0.303467,0.944580,0.205078
1493267400119,-0.340820,0.935303,0.321045
1493267400244,-0.404785,0.756836,0.306152
1493267400377,0.021240,1.281250,-0.121094
1493267400516,-0.191406,0.780762,0.339600
1493267400623,-0.155762,0.924561,0.031006
1493267400759,-0.121338,1.127441,-0.190430
1493267400888,-0.145996,1.004395,-0.145020
1493267401021,-0.107910,1.077881,-0.155518
1493267401128,-0.090088,0.972412,-0.157471
1493267401272,-0.093750,0.976807,-0.194336
1493267401404,-0.111572,0.963135,-0.218506
1493267401549,-0.108398,0.986816,-0.227295
1493267401682,-0.113770,0.977539,-0.223877
1493267401798,-0.133057,0.958008,-0.241943
1493267401931,-0.121582,0.968506,-0.253174
1493267402063,-0.082275,0.962891,-0.231934
1493267402177,-0.125488,0.944824,-0.255127
1493267402311,-0.120605,0.956055,-0.285645
1493267402443,-0.145508,0.961914,-0.280029
1493267402576,-0.139404,0.944580,-0.294189
1493267402708,-0.096436,0.939453,-0.286133
1493267402830,-0.095459,0.954102,-0.281738
1493267402972,-0.117676,0.950684,-0.294189
1493267403079,-0.120605,0.962402,-0.315186
1493267403213,-0.099854,0.953857,-0.282227
1493267403351,-0.122070,0.911865,-0.284180
1493267403460,-0.138428,0.948975,-0.332275
1493267403617,-0.086426,0.958496,-0.282471
1493267403722,-0.164062,0.915771,-0.346436
1493267403853,-0.108887,0.985840,-0.351074
1493267403992,-0.185059,0.894287,-0.346924
1493267404119,-0.125244,0.955566,-0.355957
1493267404252,-0.117920,0.955811,-0.354248
1493267404385,-0.130615,0.905273,-0.339111
1493267404499,-0.152344,0.916992,-0.358887
1493267404631,-0.119385,0.959229,-0.326172
1493267404765,-0.138672,0.982666,-0.356445
1493267404896,-0.083496,0.942871,-0.302246
1493267405040,-0.078613,0.902832,-0.318604
1493267405147,-0.082520,0.958984,-0.314453
1493267405280,-0.096191,0.949951,-0.319336
1493267405415,-0.071777,0.939453,-0.348633
1493267405547,-0.090332,0.903809,-0.332031
1493267405680,-0.098877,0.959473,-0.345215
1493267405815,-0.079346,0.953613,-0.352539
1493267405921,-0.072510,0.984863,-0.345703
1493267406054,-0.054932,0.970703,-0.252441
1493267406194,0.007812,1.022705,-0.282227
1493267406330,-0.083008,0.866211,-0.221924
1493267406464,0.051025,1.140381,-0.426758
1493267406576,-0.011475,0.900146,-0.257324
1493267406721,-0.026611,0.936035,-0.242920
1493267406827,-0.056396,0.944336,-0.314941
1493267406960,-0.070801,0.948242,-0.284912
1493267407092,-0.132324,0.929443,-0.331787
1493267407225,-0.114258,0.948975,-0.373291
1493267407357,-0.078369,1.022461,-0.361572
1493267407490,-0.013184,0.929688,-0.358887
1493267407622,0.021484,0.908691,-0.346924
1493267407730,0.012451,0.962646,-0.338867
1493267407869,0.044189,0.919189,-0.319336
1493267408001,0.025146,0.872803,-0.317871
1493267408134,0.127930,0.942383,-0.305420
1493267408266,0.153564,0.958984,-0.250732
1493267408373,0.148438,0.989014,-0.289307
1493267408506,0.068848,0.959473,-0.296387
1493267408639,0.098389,0.817139,-0.386475
1493267408771,0.179199,0.949951,-0.415771
1493267408903,0.154297,0.918945,-0.416992
1493267409042,0.102539,0.901123,-0.530029
1493267409146,0.076172,0.930908,-0.457520
1493267409283,0.128906,0.822510,-0.288574
1493267409421,0.086670,0.903320,-0.302979
1493267409553,0.067139,1.028564,-0.264893
1493267409657,0.096924,1.105957,-0.169678
1493267409819,0.148926,0.777832,-0.010254
1493267409951,0.012451,1.071777,-0.126465
1493267410059,-0.039795,0.936523,-0.239746
1493267410195,0.020508,0.852295,-0.307861
1493267410332,0.009521,0.976074,-0.448242
1493267410458,-0.030518,0.914795,-0.408203
1493267410592,0.019043,0.895020,-0.413330
1493267410722,0.005615,0.930176,-0.420898
1493267410833,0.023438,0.894775,-0.416748
1493267410972,0.008057,0.877441,-0.411621
1493267411105,-0.002930,0.895264,-0.444336
1493267411212,0.007568,0.903320,-0.456055
1493267411370,0.002197,0.907471,-0.449463
1493267411478,0.022705,0.866455,-0.441650
1493267411612,0.058594,0.883301,-0.463623
1493267411743,0.064209,0.892334,-0.410889
1493267411875,0.032959,0.899902,-0.425293
1493267412008,0.028076,0.899170,-0.430420
1493267412138,0.031250,0.890869,-0.428711
1493267412254,0.029297,0.889648,-0.448242
1493267412385,0.049072,0.897949,-0.465576
1493267412523,0.064209,0.894287,-0.449219
1493267412661,0.058838,0.880127,-0.451660
1493267412769,0.052246,0.871826,-0.486328
1493267412902,0.053711,0.872559,-0.472900
1493267413046,0.033691,0.879639,-0.473877
1493267413149,0.027588,0.871826,-0.488525
1493267413305,0.014160,0.860840,-0.488281
1493267413419,0.004883,0.862793,-0.492188
1493267413553,0.017334,0.863037,-0.503418
1493267413685,0.023926,0.875244,-0.494385
1493267413799,0.014648,0.869385,-0.491455
1493267413935,0.012695,0.859375,-0.501709
1493267414068,0.013916,0.862061,-0.515869
1493267414206,0.005127,0.857422,-0.504150
1493267414350,0.017822,0.863770,-0.517334
1493267414483,0.044678,0.856445,-0.512939
1493267414587,0.051758,0.849854,-0.496338
1493267414722,0.050781,0.861816,-0.494385
1493267414854,0.033936,0.863037,-0.511230
1493267414988,0.025146,0.844971,-0.519287
1493267415104,0.035889,0.859375,-0.516846
1493267415236,-0.002441,0.842041,-0.498535
1493267415369,-0.007812,0.862305,-0.541748
1493267415502,0.003174,0.820557,-0.517578
1493267415630,0.071777,0.871582,-0.505127
1493267415765,0.103027,0.886719,-0.488281
1493267415867,0.129395,0.882080,-0.448242
1493267416016,0.138184,0.846924,-0.408203
1493267416149,0.157715,0.873047,-0.394775
1493267416263,0.087158,0.878174,-0.417236
1493267416396,0.113037,0.869385,-0.477295
1493267416528,0.176025,0.909424,-0.550293
1493267416660,0.111816,0.801270,-0.479980
1493267416790,0.085938,0.864258,-0.522705
1493267416912,0.010254,0.800049,-0.478760
1493267417049,0.060059,0.891113,-0.582275
1493267417182,0.081299,0.892578,-0.504639
1493267417314,0.083740,0.801514,-0.536377
1493267417426,0.113037,0.843506,-0.520264
1493267417554,0.094971,0.853516,-0.549072
1493267417688,0.101562,0.842041,-0.499512
1493267417816,0.067139,0.825684,-0.523193
1493267417954,0.064941,0.849365,-0.533447
1493267418089,0.005859,0.874268,-0.498291
1493267418211,-0.024414,0.814453,-0.540771
1493267418343,0.070312,0.813477,-0.530762
1493267418477,0.153564,0.821045,-0.489502
1493267418584,0.274902,0.839600,-0.520752
1493267418742,0.203369,0.865967,-0.475586
1493267418854,0.256592,0.836670,-0.428467
1493267418985,0.336426,0.856689,-0.422119
1493267419127,0.301270,0.865967,-0.405762
1493267419260,0.313721,0.908203,-0.507568
1493267419369,0.333008,0.818359,-0.367432
1493267419495,0.333252,0.839600,-0.358887
1493267419627,0.316650,0.880859,-0.389648
1493267419760,0.319092,0.881104,-0.372803
1493267419900,0.286865,0.872803,-0.407471
1493267420010,0.297119,0.856689,-0.381348
1493267420143,0.293213,0.875000,-0.348633
1493267420278,0.360352,0.938232,-0.399170
1493267420410,0.381836,0.886475,-0.289551
1493267420543,0.423584,0.950684,-0.237305
1493267420656,0.138184,1.074951,-0.296631
1493267420800,-0.059082,0.767578,-0.142578
1493267420931,0.099854,1.011475,-0.352783
1493267421072,0.012451,0.847900,-0.474854
1493267421179,0.163330,1.109863,-0.422852
1493267421311,-0.078613,1.077393,-0.491455
1493267421450,0.005127,1.058594,-0.395020
1493267421581,0.144287,1.040283,-0.338135
1493267421690,0.015869,0.932129,-0.265381
1493267421848,-0.008545,0.866211,-0.286133
1493267421955,-0.038818,0.983398,-0.367920
1493267422085,-0.013672,0.937988,-0.356445
1493267422227,-0.002197,0.789307,-0.297852
1493267422327,0.048096,0.996826,-0.431152
1493267422464,0.095703,0.950195,-0.372803
1493267422622,0.179443,0.934570,-0.375488
1493267422729,0.246094,0.905029,-0.378174
1493267422862,0.156982,0.884277,-0.372559
1493267422990,0.124023,0.880859,-0.367920
1493267423107,0.288818,0.943604,-0.402588
1493267423259,0.257812,0.901611,-0.372559
1493267423397,0.181152,0.878906,-0.381592
1493267423512,0.180176,0.877197,-0.367188
1493267423646,0.149902,0.868896,-0.356934
1493267423779,0.163818,0.900391,-0.355225
1493267423893,0.122803,0.916260,-0.370850
1493267424025,0.138184,0.943604,-0.395020
1493267424161,0.155029,0.896240,-0.399902
1493267424290,0.156738,0.857422,-0.385010
1493267424423,0.117188,0.926758,-0.359131
1493267424540,0.123047,0.918701,-0.399658
1493267424673,0.253174,0.913330,-0.392822
1493267424805,0.216797,0.857910,-0.397949
1493267424936,0.184326,0.892090,-0.368408
1493267425070,0.143799,0.935059,-0.388184
1493267425178,0.138428,0.865234,-0.410156
1493267425335,0.134766,0.877686,-0.385498
1493267425443,0.185059,0.881836,-0.408447
1493267425575,0.258301,0.875488,-0.322266
1493267425709,0.222168,0.962646,-0.324219
1493267425845,0.275635,0.881836,-0.292969
1493267425953,0.348389,0.878174,-0.301514
1493267426085,0.382812,0.905273,-0.313232
1493267426218,0.380859,0.885986,-0.312988
1493267426352,0.364258,0.906738,-0.321777
1493267426488,0.363525,0.931885,-0.319336
1493267426617,0.347656,0.882568,-0.232178
1493267426749,0.363525,0.877930,-0.232178
1493267426882,0.383301,0.954346,-0.246338
1493267427014,0.371338,1.049072,-0.236572
1493267427126,0.353271,0.924072,-0.153564
1493267427263,0.262695,0.959717,-0.113281
1493267427392,0.216309,0.949463,-0.181641
1493267427525,0.231201,0.925781,-0.167480
1493267427657,0.234375,0.966309,-0.187744
1493267427765,0.231445,0.913574,-0.170166
1493267427898,0.135010,0.947754,-0.197998
1493267428030,0.173584,0.982666,-0.234863
1493267428163,0.200684,0.978027,-0.196289
1493267428272,0.160889,0.901367,-0.236816
1493267428432,0.209961,0.926514,-0.182861
1493267428564,0.197266,1.026611,-0.292480
1493267428672,0.243896,0.922852,-0.242188
1493267428804,0.237549,0.978516,-0.295654
1493267428943,0.255127,0.900391,-0.267090
1493267429075,0.239014,0.944580,-0.283936
1493267429183,0.288086,0.941895,-0.257812
1493267429326,0.250244,0.918701,-0.272217
1493267429434,0.223633,0.922363,-0.302734
1493267429592,0.271484,0.922119,-0.290283
1493267429711,0.275146,0.885498,-0.286621
1493267429843,0.270508,0.894287,-0.302979
1493267429975,0.281494,0.913818,-0.273926
1493267430114,0.229980,0.905762,-0.285156
1493267430221,0.320557,0.901123,-0.251709
1493267430351,0.234863,0.906738,-0.270020
1493267430491,0.246338,0.898926,-0.263672
1493267430628,0.228027,0.923584,-0.288330
1493267430761,0.265625,0.936279,-0.267578
1493267430865,0.242676,0.910645,-0.270020
1493267431019,0.243408,0.929932,-0.296631
1493267431152,0.237061,0.919189,-0.289062
1493267431284,0.244629,0.885010,-0.274902
1493267431398,0.261719,0.918213,-0.288818
1493267431528,0.262207,0.931152,-0.261719
1493267431663,0.208740,0.926758,-0.306152
1493267431777,0.224365,0.942871,-0.324463
1493267431934,0.279053,0.921143,-0.281982
1493267432042,0.311523,0.894775,-0.361816
1493267432177,0.311523,0.914551,-0.237061
1493267432296,0.287598,0.924805,-0.307861
1493267432428,0.295410,0.909912,-0.233398
1493267432542,0.325439,0.896973,-0.234131
1493267432674,0.350830,0.864258,-0.259521
1493267432803,0.319336,0.914307,-0.235596
1493267432941,0.338135,0.871582,-0.346680
1493267433074,0.388428,0.899170,-0.338623
1493267433181,0.316162,0.831055,-0.374756
1493267433339,0.393066,0.879395,-0.396973
1493267433455,-0.120361,0.945068,-0.491455
1493267433600,0.333984,0.938477,-0.314453
1493267433705,0.414062,1.011230,-0.286377
1493267433861,0.230713,0.926514,-0.173584
1493267433970,0.355225,0.874023,-0.147217
1493267434105,0.471680,0.884521,-0.190186
1493267434242,0.254150,0.821289,-0.433105
1493267434367,0.325928,0.513428,-0.320312
1493267434499,0.495850,0.790527,-0.717041
1493267434631,0.651123,0.470459,-0.727295
1493267434776,0.513916,0.727295,-0.525879
1493267434868,0.645264,0.346680,-0.564941
1493267435011,0.491943,0.597412,-0.895752
1493267435142,0.197754,0.382812,-0.898682
1493267435277,0.028564,0.136230,-0.950195
1493267435389,-0.042969,0.651367,-0.898438
1493267435535,0.232178,0.866943,-0.574707
1493267435669,0.065674,0.748047,-0.270508
1493267435776,-0.114014,0.875244,-0.244629
1493267435933,-0.165039,0.937988,-0.397949
1493267436061,0.086426,1.053467,-0.350586
1493267436193,0.178711,1.251221,-0.325439
1493267436310,0.012695,0.570557,-0.391602
1493267436442,0.123047,0.762695,-0.788818
1493267436574,0.020508,0.680664,-0.564941
1493267436707,0.064697,0.653320,-0.668213
1493267436814,0.103760,0.692139,-0.735596
1493267436947,0.156738,0.841309,-0.315186
1493267437081,0.403320,1.099854,-0.527344
1493267437213,0.120850,0.879639,-0.326172
1493267437340,0.191895,0.865967,-0.331543
1493267437454,0.225586,0.878906,-0.509277
1493267437587,0.128906,0.663818,-0.579590
1493267437744,0.106689,0.440430,-0.590332
1493267437854,0.167480,0.541748,-0.584961
1493267437986,0.324463,0.547852,-0.680176
1493267438119,0.433838,0.753662,-0.830322
1493267438257,0.443604,0.728027,-0.821289
1493267438364,0.474609,0.628174,-0.709229
1493267438522,0.526855,0.666748,-0.719238
1493267438623,0.500732,0.575195,-0.651123
1493267438770,0.472412,0.518799,-0.663330
1493267438884,0.505859,0.526367,-0.703369
1493267439017,0.482178,0.581299,-0.658203
1493267439150,0.503906,0.531982,-0.651611
1493267439283,0.508301,0.578857,-0.640381
1493267439410,0.477539,0.534912,-0.620850
1493267439526,0.490234,0.562500,-0.629639
1493267439660,0.497314,0.589111,-0.622314
1493267439796,0.485107,0.579346,-0.642578
1493267439926,0.469238,0.581055,-0.650391
1493267440058,0.493652,0.568359,-0.605713
1493267440189,0.489014,0.532715,-0.657959
1493267440305,0.447754,0.573730,-0.688965
1493267440462,0.523193,0.621338,-0.626953
1493267440570,0.470215,0.575195,-0.652588
1493267440708,0.484375,0.632568,-0.670410
1493267440840,0.462646,0.548828,-0.574951
1493267440970,0.475586,0.615234,-0.673584
1493267441083,0.358154,0.539551,-0.727539
1493267441206,0.418701,0.582764,-0.652588
1493267441339,0.445557,0.587158,-0.654297
1493267441477,0.397949,0.557861,-0.685303
1493267441607,0.360352,0.636963,-0.744629
1493267441742,0.376953,0.633301,-0.695312
1493267441880,0.367920,0.598145,-0.635010
1493267442007,0.323242,0.599121,-0.689209
1493267442114,0.319336,0.690430,-0.671631
1493267442247,0.327637,0.659912,-0.652344
1493267442380,0.426758,0.635742,-0.648926
1493267442514,0.388672,0.684326,-0.637695
1493267442650,0.421631,0.701172,-0.542969
1493267442762,0.395020,0.686035,-0.591797
1493267442897,0.418457,0.705811,-0.588623
1493267443030,0.395996,0.758545,-0.551758
1493267443146,0.349121,0.707764,-0.539307
1493267443304,0.387451,0.794189,-0.473145
1493267443412,0.371582,0.793945,-0.521240
1493267443551,0.439697,0.820068,-0.540283
1493267443683,0.436523,0.859619,-0.662109
1493267443816,0.375000,0.744873,-0.565430
1493267443930,-0.044678,1.021973,-0.833984
1493267444063,0.184326,0.577393,-0.519775
1493267444194,0.172119,0.564697,-0.654297
1493267444333,0.197754,0.653076,-0.666992
1493267444462,0.332031,0.715332,-0.559570
1493267444571,0.387939,0.740234,-0.687744
1493267444712,0.378174,0.710449,-0.624756
1493267444844,0.394043,0.684814,-0.585449
1493267444977,0.451660,0.716553,-0.613281
1493267445103,0.445557,0.632324,-0.552734
1493267445211,0.397705,0.591553,-0.583252
1493267445343,0.489746,0.635986,-0.664062
1493267445476,0.489746,0.667236,-0.616455
1493267445609,0.476807,0.680176,-0.600586
1493267445742,0.491455,0.604492,-0.616211
1493267445873,0.463867,0.556396,-0.607666
1493267446006,0.469482,0.626465,-0.575684
1493267446138,0.458008,0.646973,-0.559082
1493267446270,0.480469,0.594238,-0.556152
1493267446402,0.515137,0.584229,-0.616211
1493267446510,0.470947,0.614502,-0.580811
1493267446656,0.512939,0.604492,-0.584229
1493267446789,0.555420,0.618408,-0.542236
1493267446895,0.525391,0.573730,-0.633301
1493267447035,0.550537,0.615723,-0.644287
1493267447168,0.544678,0.658203,-0.664795
1493267447299,0.502441,0.549072,-0.577393
1493267447432,0.526855,0.551758,-0.640137
1493267447554,0.511963,0.636230,-0.621582
1493267447680,0.525391,0.635742,-0.644775
1493267447812,0.527100,0.464111,-0.595215
1493267447944,0.386719,0.510986,-0.524902
1493267448053,0.639648,0.493896,-0.655273
1493267448211,0.572021,0.459961,-0.610107
1493267448319,0.525879,0.480957,-0.628174
1493267448453,0.578369,0.560547,-0.595703
1493267448583,0.689453,0.516113,-0.565430
1493267448720,0.619385,0.476562,-0.593262
1493267448830,0.471436,0.489014,-0.506348
1493267448963,0.577637,0.709229,-0.571777
1493267449101,0.503906,0.474365,-0.753174
1493267449233,0.475342,0.598389,-0.818604
1493267449363,0.366943,0.500977,-0.709717
1493267449480,0.418701,0.480713,-0.725586
1493267449612,0.500488,0.397461,-0.767334
1493267449745,0.529297,0.517334,-0.826660
1493267449878,0.538818,0.589844,-0.703369
1493267450006,0.446289,0.613525,-0.562500
1493267450141,0.527832,0.614014,-0.616455
1493267450273,0.446533,0.662598,-0.584717
1493267450407,0.344238,0.617432,-0.568359
1493267450519,0.364502,0.681885,-0.571045
1493267450639,0.376465,0.629395,-0.499512
1493267450771,0.458984,0.675049,-0.499756
1493267450903,0.428223,0.736816,-0.562988
1493267451040,0.442383,0.673340,-0.599609
1493267451150,0.351074,0.625488,-0.581787
1493267451308,0.434570,0.787598,-0.542969
1493267451421,0.430908,0.695801,-0.473389
1493267451563,0.349609,0.717285,-0.557617
1493267451695,0.221924,0.739746,-0.578613
1493267451800,0.190674,0.771240,-0.638184
1493267451938,0.174561,0.735352,-0.611572
1493267452069,0.123291,0.737549,-0.622559
1493267452205,0.154297,0.773438,-0.634033
1493267452339,0.098389,0.739014,-0.655273
1493267452472,0.107666,0.767578,-0.641602
1493267452575,0.110596,0.764648,-0.662354
1493267452726,0.109863,0.716797,-0.663330
1493267452859,0.089355,0.711670,-0.645508
1493267452994,0.105469,0.732178,-0.653076
1493267453096,0.120361,0.685547,-0.637695
1493267453231,0.113037,0.635010,-0.516602
1493267453364,0.374512,0.739258,-0.641357
1493267453478,0.544189,0.737793,-0.525635
1493267453635,0.499756,0.785645,-0.639160
1493267453742,0.623535,0.639648,-0.684570
1493267453889,0.605713,0.569580,-0.662354
1493267454006,0.505127,0.513672,-0.632080
1493267454135,0.446777,0.499512,-0.679932
1493267454278,0.484131,0.535156,-0.752686
1493267454393,0.417236,0.481934,-0.708496
1493267454521,0.416992,0.485107,-0.726074
1493267454656,0.357666,0.524170,-0.766846
1493267454798,0.375732,0.491943,-0.777832
1493267454905,0.439941,0.549805,-0.672119
1493267455038,0.396484,0.516846,-0.758057
1493267455167,0.392822,0.590088,-0.823242
1493267455311,0.348877,0.584229,-0.681641
1493267455419,0.312500,0.512695,-0.717285
1493267455576,0.332275,0.579346,-0.717041
1493267455684,0.327881,0.559326,-0.674072
1493267455820,0.393311,0.633545,-0.697998
1493267455950,0.319580,0.627441,-0.841797
1493267456082,0.287598,0.634521,-0.817383
1493267456223,0.163086,0.555420,-0.677734
1493267456350,0.052490,0.568604,-0.721191
1493267456480,0.116943,0.645264,-0.760010
1493267456591,0.080811,0.604492,-0.710693
1493267456749,0.117920,0.622070,-0.709961
1493267456856,0.034180,0.620361,-0.691895
1493267456989,-0.016357,0.635742,-0.702637
1493267457123,-0.065674,0.689941,-0.721191
1493267457230,-0.098145,0.733154,-0.732178
1493267457362,-0.085205,0.681396,-0.724365
1493267457494,-0.030762,0.707520,-0.686523
1493267457626,0.006836,0.758301,-0.667725
1493267457759,0.009277,0.782227,-0.720703
1493267457896,0.078125,0.718018,-0.626221
1493267458029,0.153564,0.750732,-0.546143
1493267458162,0.085205,0.812500,-0.625244
1493267458286,0.001465,0.760498,-0.576660
1493267458419,0.024170,0.891357,-0.583252
1493267458526,0.032959,0.901855,-0.753662
1493267458660,-0.066406,0.528809,-0.691162
1493267458791,-0.041504,0.611572,-0.674316
1493267458926,0.001221,0.660645,-0.704834
1493267459059,0.025391,0.694824,-0.726318
1493267459176,0.020020,0.636475,-0.841797
1493267459309,0.034668,0.713135,-0.774902
1493267459442,0.032227,0.614502,-0.675293
1493267459577,0.040771,0.543457,-0.793457
1493267459682,0.003174,0.560303,-0.777100
1493267459839,0.071777,0.542725,-0.902832
1493267459972,0.056885,0.542725,-0.857178
1493267460103,0.074951,0.482910,-0.869873
1493267460220,0.083740,0.470215,-0.842285
1493267460353,0.045654,0.503174,-0.811279
1493267460485,-0.012695,0.506836,-0.813232
1493267460599,-0.034424,0.491455,-0.851318
1493267460729,-0.017090,0.490967,-0.894043
1493267460864,-0.065674,0.489990,-0.860107
1493267460996,-0.089844,0.466309,-0.876465
1493267461129,-0.078125,0.458496,-0.881592
1493267461262,-0.108154,0.453613,-0.893799
1493267461393,-0.037598,0.435791,-0.950928
1493267461526,-0.018555,0.464111,-0.900391
1493267461633,-0.083252,0.429932,-0.864990
1493267461763,-0.085938,0.410400,-0.900635
1493267461889,0.020020,0.478760,-0.882080
1493267462022,0.002686,0.500000,-0.841064
1493267462169,-0.031982,0.474365,-0.824951
1493267462276,-0.028809,0.484131,-0.873535
1493267462409,-0.058594,0.510498,-0.778564
1493267462554,-0.077393,0.536865,-0.892090
1493267462685,-0.126953,0.359863,-0.808594
1493267462793,-0.128662,0.396484,-0.909668
1493267462942,-0.106689,0.358643,-0.929443
1493267463075,-0.168701,0.265381,-0.878418
1493267463180,-0.096191,0.285889,-0.991211
1493267463339,-0.147217,0.334717,-0.968018
1493267463446,-0.118652,0.423096,-1.035400
1493267463579,-0.126221,0.370117,-0.968994
1493267463712,-0.116699,0.339600,-0.882080
1493267463816,-0.104004,0.385010,-0.920654
1493267463947,-0.058594,0.384277,-0.930908
1493267464083,-0.109131,0.367188,-0.913086
1493267464222,-0.067139,0.362305,-0.914795
1493267464354,-0.101074,0.351074,-0.894531
1493267464486,-0.090088,0.365723,-0.951172
1493267464604,-0.086426,0.360840,-0.940186
1493267464736,-0.087646,0.359375,-0.924561
1493267464869,-0.067627,0.359863,-0.940674
1493267465008,-0.064941,0.344238,-0.923584
1493267465115,-0.066162,0.337646,-0.932373
1493267465268,-0.061768,0.338623,-0.917969
1493267465382,-0.037598,0.347412,-0.940430
1493267465522,-0.058838,0.327393,-0.937988
1493267465659,-0.041504,0.354248,-0.918945
1493267465773,0.003662,0.307861,-0.878418
1493267465906,0.044434,0.359131,-0.963135
1493267466044,0.039551,0.368164,-0.946777
1493267466176,0.009033,0.361572,-0.967041
1493267466284,0.073975,0.380615,-0.911133
1493267466420,0.077637,0.387939,-0.916016
1493267466549,0.089111,0.399902,-0.983154
1493267466682,0.055664,0.405029,-0.952393
1493267466831,0.086182,0.480469,-0.885254
1493267466943,0.003418,0.446533,-0.806152
1493267467071,-0.011230,0.427490,-0.718994
1493267467204,-0.012207,0.564941,-0.888672
1493267467343,-0.081787,0.510254,-0.882324
1493267467450,-0.055420,0.512451,-0.858887
1493267467583,-0.025879,0.539307,-0.831787
1493267467715,0.008789,0.521973,-0.878906
1493267467831,0.052734,0.530029,-0.728271
1493267467990,0.021973,0.016602,-0.728271
1493267468112,0.093018,0.257568,-1.281494
1493267468228,0.361572,0.197266,-1.070801
1493267468361,0.350586,0.199463,-0.965332
1493267468493,0.236084,0.276611,-0.570312
1493267468606,-0.101562,0.081055,-0.943115
1493267468767,0.001465,0.075439,-0.942139
1493267468874,0.010742,0.128418,-1.052002
1493267469012,0.051758,0.154785,-1.050293
1493267469147,0.035400,0.236572,-0.798584
1493267469279,-0.008301,0.457275,-0.936768
1493267469392,-0.004150,0.443604,-0.727295
1493267469524,-0.250732,0.501465,-0.978516
1493267469658,-0.231689,0.451416,-0.758789
1493267469766,-0.179688,0.465332,-0.871582
1493267469928,-0.110352,0.411621,-0.965820
1493267470034,-0.067871,0.347168,-0.686768
1493267470175,-0.011230,0.224365,-1.129150
1493267470308,0.012695,0.323242,-0.838623
1493267470415,0.135742,0.300293,-0.976807
1493267470547,0.054688,0.767334,-0.850586
1493267470671,0.089111,0.873047,-0.678955
1493267470829,0.078613,0.639893,-0.510986
1493267470945,0.000488,0.801270,-0.501709
1493267471074,0.136719,0.740967,-0.734375
1493267471208,0.121094,0.556641,-0.843994
1493267471341,0.000244,0.481689,-0.707764
1493267471473,0.072998,0.517578,-0.825439
1493267471605,0.076172,0.455078,-0.936523
1493267471713,0.019775,0.290283,-0.967529
1493267471870,-0.021729,0.345215,-0.915771
1493267471975,0.124268,0.380127,-0.995850
1493267472111,0.071777,0.405518,-0.843994
1493267472243,0.124023,0.517578,-0.966553
1493267472375,0.168457,0.402832,-0.939209
1493267472484,0.158203,0.374512,-0.892822
1493267472625,0.041504,0.381104,-0.877930
1493267472758,0.041992,0.254150,-0.862305
1493267472866,0.135498,0.245361,-1.063477
1493267473009,0.094971,0.251709,-0.962158
1493267473142,0.097412,0.162598,-0.947266
1493267473282,0.104492,0.156250,-0.878662
1493267473412,0.161377,0.280273,-1.039307
1493267473524,0.147461,0.458008,-1.025879
1493267473655,0.101807,0.280762,-0.938477
1493267473793,0.133545,0.333008,-0.887207
1493267473925,0.241455,0.268799,-0.955566
1493267474058,0.246582,0.264160,-0.932129
1493267474191,0.184570,0.319824,-0.876221
1493267474298,0.156250,0.285400,-0.962646
1493267474431,0.165771,0.268066,-0.955811
1493267474570,0.146240,0.253906,-0.926514
1493267474693,0.161621,0.281250,-0.928955
1493267474804,0.166260,0.340332,-0.912842
1493267474959,0.210449,0.333496,-0.920898
1493267475092,0.197021,0.317871,-0.900146
1493267475199,0.181885,0.345703,-0.915771
1493267475360,0.207764,0.442627,-0.855713
1493267475467,0.230469,0.431641,-0.827148
1493267475600,0.178467,0.466797,-0.878418
1493267475741,0.180664,0.448975,-0.854492
1493267475874,0.243164,0.406738,-0.783203
1493267475981,0.257080,0.356934,-0.661377
1493267476121,0.520264,0.333740,-0.440918
1493267476253,0.457031,0.408936,-0.788086
1493267476361,0.466553,0.327148,-0.682617
1493267476524,0.663818,0.390137,-0.741455
1493267476629,0.870850,0.147461,-0.887939
1493267476764,0.825195,0.303711,-0.696045
1493267476900,0.893066,0.216064,-0.780518
1493267477022,0.769043,0.197510,-0.617676
1493267477154,0.666504,0.222900,-0.679688
1493267477286,0.675293,0.268555,-0.719238
1493267477395,0.628662,0.240234,-0.656250
1493267477553,0.712158,0.203125,-0.654297
1493267477667,0.677002,0.173584,-0.641602
1493267477801,0.718750,0.229492,-0.713867
1493267477910,0.612305,0.245850,-0.615723
1493267478042,0.626953,0.212158,-0.651855
1493267478184,0.587646,0.421387,-0.593750
1493267478302,0.787842,0.395752,-0.627930
1493267478460,0.712646,0.352051,-0.656250
1493267478569,0.690674,0.357422,-0.520752
1493267478695,0.749756,0.254150,-0.541016
1493267478832,0.665527,0.387207,-0.625732
1493267478946,0.688965,0.399658,-0.568359
1493267479078,0.665527,0.403809,-0.599121
1493267479211,0.658203,0.364502,-0.639648
1493267479350,0.676270,0.348389,-0.667236
1493267479457,0.646484,0.364502,-0.621582
1493267479607,0.639893,0.346436,-0.640625
1493267479723,0.653809,0.307617,-0.632812
1493267479859,0.655518,0.390381,-0.671387
1493267479994,0.650391,0.334717,-0.646240
1493267480130,0.597412,0.315186,-0.634521
1493267480236,0.614014,0.345459,-0.621582
1493267480394,0.677002,0.370850,-0.609619
1493267480502,0.724854,0.386475,-0.550537
1493267480636,0.765137,0.390625,-0.531738
1493267480792,0.767090,0.388428,-0.543945
1493267480888,0.700684,0.431152,-0.436768
1493267481026,0.740967,0.401367,-0.537109
1493267481159,0.718994,0.433838,-0.560547
1493267481291,0.694580,0.423828,-0.523926
1493267481399,0.690674,0.434326,-0.556152
1493267481538,0.670166,0.462891,-0.503418
1493267481669,0.660645,0.450928,-0.567139
1493267481810,0.616211,0.521973,-0.587646
1493267481942,0.635498,0.508789,-0.654297
1493267482050,0.573730,0.496338,-0.634766
1493267482192,0.623535,0.442871,-0.624756
1493267482324,0.637695,0.416260,-0.634033
1493267482457,0.611328,0.444336,-0.595703
1493267482565,0.616943,0.407959,-0.632812
1493267482697,0.627197,0.441650,-0.645752
1493267482829,0.596680,0.406982,-0.613525
1493267482968,0.627441,0.420410,-0.645752
1493267483097,0.646484,0.423340,-0.628418
1493267483235,0.646729,0.420898,-0.616455
1493267483366,0.625000,0.418213,-0.620117
1493267483497,0.629883,0.397217,-0.613525
1493267483604,0.650146,0.456055,-0.600342
1493267483737,0.735840,0.417969,-0.583984
1493267483879,0.677490,0.474854,-0.563965
1493267483986,0.619141,0.481689,-0.624268
1493267484143,0.570312,0.500244,-0.622070
1493267484260,0.608398,0.468994,-0.592529
1493267484394,0.551025,0.518799,-0.556885
1493267484524,0.629395,0.454102,-0.586670
1493267484639,0.641113,0.469971,-0.593018
1493267484777,0.631836,0.486084,-0.653564
1493267484885,0.631592,0.471436,-0.618408
1493267485042,0.666504,0.453125,-0.623535
1493267485173,0.664551,0.392578,-0.561768
1493267485280,0.707275,0.377930,-0.538330
1493267485422,0.713379,0.343018,-0.561523
1493267485555,0.669922,0.420654,-0.532959
1493267485691,0.737061,0.369873,-0.577393
1493267485815,0.731445,0.396729,-0.551758
1493267485952,0.762451,0.369385,-0.546875
1493267486083,0.718750,0.362793,-0.541260
1493267486197,0.677490,0.361572,-0.567627
1493267486330,0.696777,0.406982,-0.561768
1493267486462,0.687256,0.374268,-0.534180
1493267486576,0.719727,0.342773,-0.536377
1493267486733,0.759766,0.312744,-0.576660
1493267486841,0.718262,0.327637,-0.559082
1493267486973,0.707520,0.334717,-0.534668
1493267487106,0.575928,0.363281,-0.507812
1493267487262,0.688477,0.345703,-0.601562
1493267487370,0.816406,0.418701,-0.667969
1493267487477,0.821533,0.398682,-0.666016
1493267487610,0.850342,0.441162,-0.762451
1493267487742,0.760254,0.474365,-0.704102
1493267487875,0.688477,0.413330,-0.667480
1493267488007,0.511475,0.402344,-0.683594
1493267488135,0.337402,0.372314,-0.617676
1493267488280,0.252930,0.395020,-0.650879
1493267488383,0.257324,0.505127,-0.784668
1493267488541,0.378906,0.550537,-0.762939
1493267488656,0.499512,0.364014,-0.864746
1493267488789,0.409912,0.401611,-0.750977
1493267488921,0.444092,0.452881,-0.709961
1493267489053,0.279297,0.545410,-0.791260
1493267489188,0.049072,0.605469,-0.817139
1493267489300,-0.115234,0.764648,-0.758301
1493267489433,-0.185791,0.608887,-0.901611
1493267489565,-0.109131,0.410400,-0.871338
1493267489697,-0.164307,0.330811,-0.810547
1493267489822,-0.053955,0.420166,-0.872559
1493267489955,-0.023193,0.472900,-0.636963
1493267490084,0.138672,0.698242,-0.903564
1493267490220,0.215088,0.510254,-1.055664
1493267490327,0.026855,0.572266,-0.755615
1493267490485,0.090820,0.581543,-0.645996
1493267490592,0.106689,0.618408,-0.900391
1493267490723,0.111816,0.687012,-0.824463
1493267490857,0.052490,0.322998,-0.744873
1493267490990,0.010498,0.458008,-0.827881
1493267491099,0.188965,0.473877,-0.947998
1493267491235,0.217773,0.575928,-0.819336
1493267491368,0.156494,0.550293,-0.501953
1493267491500,0.312500,0.769531,-0.681152
1493267491632,0.270020,0.741699,-0.970703
1493267491740,0.312256,0.623047,-0.809082
1493267491898,0.228027,0.436279,-0.774414
1493267492030,0.129395,0.505615,-1.051025
1493267492135,0.532471,0.529297,-0.671631
1493267492270,0.601807,0.601807,-0.271240
1493267492410,0.776367,-0.178467,-0.100830
1493267492540,1.198242,0.244629,-0.075439
1493267492673,1.185791,0.431885,-0.175293
1493267492801,0.939209,0.108398,0.348145
1493267492912,0.997314,0.383789,-0.236328
1493267493042,0.907227,0.043457,-0.045410
1493267493186,1.167969,0.124023,-0.366211
1493267493317,0.426514,0.292725,-0.007568
1493267493422,0.743164,0.203857,0.048340
1493267493583,1.155273,0.332520,0.029297
1493267493688,1.145264,0.401367,-0.169922
1493267493820,1.001221,0.125732,-0.093262
1493267493959,0.859131,0.115479,-0.269531
1493267494082,0.889893,0.456787,-0.229004
1493267494203,1.016602,0.319092,-0.221924
1493267494335,1.135010,0.155518,-0.048584
1493267494468,0.965576,0.169189,0.052246
1493267494600,0.899902,0.193848,-0.012939
1493267494732,1.143555,0.516113,-0.128418
1493267494865,0.998535,0.285645,-0.174561
1493267494992,0.899414,0.242188,-0.206543
1493267495124,0.959229,0.218994,-0.224854
1493267495230,0.982910,0.262451,-0.232666
1493267495364,0.936768,0.185791,-0.213135
1493267495498,1.019531,0.220703,-0.005371
1493267495630,0.816895,0.527100,0.178223
1493267495763,0.857422,0.772949,-0.124512
1493267495895,0.675537,0.669189,-0.407471
1493267496028,0.345947,0.527588,-0.823730
1493267496144,0.299316,0.512939,-0.635498
1493267496298,0.116943,0.379639,-0.607422
1493267496405,-0.187500,0.338623,-0.933105
1493267496523,-0.071289,0.255859,-1.000977
1493267496656,-0.152100,0.354492,-0.936279
1493267496789,-0.180664,0.343506,-0.931641
1493267496928,-0.171631,0.363525,-0.905029
1493267497064,-0.091309,0.402100,-0.875000
1493267497174,-0.069092,0.340088,-0.835205
1493267497312,-0.072998,0.653809,-0.831543
1493267497442,-0.031982,0.566650,-0.882080
1493267497577,-0.077393,0.476562,-0.877930
1493267497710,-0.094238,0.495117,-0.990723
1493267497826,-0.177734,0.437012,-0.850586
1493267497959,-0.219238,0.456787,-0.799805
1493267498091,-0.155273,0.497314,-0.803223
1493267498230,-0.238525,0.649170,-0.739990
1493267498338,-0.156006,0.972900,-0.798828
1493267498471,-0.253174,0.657227,-0.520020
1493267498598,-0.194580,0.843018,-0.348633
1493267498733,-0.217773,0.749023,-0.252441
1493267498853,-0.239258,0.994629,0.170898
1493267499034,-0.345947,1.132324,-0.168213
1493267499124,-0.185547,0.842285,-0.167969
1493267499252,-0.216797,0.982910,-0.182373
1493267499388,-0.161377,0.903564,-0.506592
1493267499520,0.095215,0.582031,-0.874268
1493267499637,0.229736,0.336182,-0.908691
1493267499763,0.146729,0.358643,-0.889648
1493267499900,0.168213,0.548096,-0.888428
1493267500033,0.246582,0.592773,-0.876709
1493267500164,0.338379,0.538086,-0.714600
1493267500300,0.239014,0.542725,-0.723633
1493267500429,0.145020,0.588379,-0.787354
1493267500562,0.196289,0.488281,-0.898438
1493267500672,0.164551,0.482666,-0.797852
1493267500802,0.126221,0.500732,-0.815674
1493267500924,0.154785,0.536377,-0.864990
1493267501064,0.119873,0.516846,-0.818359
1493267501168,0.100830,0.514648,-0.843994
1493267501339,0.020020,0.526611,-0.921631
1493267501459,0.145996,0.560791,-0.934082
1493267501567,0.034180,0.588379,-0.821045
1493267501700,-0.020264,0.591797,-0.617676
1493267501858,0.013184,0.641602,-0.541748
1493267501965,0.846924,0.085205,0.041260
1493267502098,1.434570,1.066650,-1.184082
1493267502226,1.007568,1.550781,-0.333008
1493267502362,0.714111,-0.165039,-0.355957
1493267502496,1.000000,0.303955,-1.053223
1493267502623,0.748535,-0.261475,0.030029
1493267502726,0.642090,0.435059,-0.298584
1493267502888,0.760986,-0.081543,-0.106689
1493267503002,1.127686,0.487061,-0.078857
1493267503134,1.191895,0.468262,0.071777
1493267503270,0.829590,0.436523,-0.020508
1493267503401,0.894531,0.390625,-0.111328
1493267503532,0.730225,0.345947,0.108154
1493267503664,0.983154,0.572510,0.018311
1493267503769,0.780518,0.520020,0.207764
1493267503903,0.793945,0.430420,0.168701
1493267504038,0.804932,0.401367,-0.090332
1493267504169,0.992188,0.820801,-0.089844
1493267504282,1.194336,1.089355,-0.533691
1493267504414,0.316650,0.416260,-0.772461
1493267504548,0.380127,0.548340,0.000732
1493267504663,0.000000,1.014893,-0.131104
1493267504828,-0.091309,0.920654,-0.265869
1493267504934,0.056641,0.707520,-0.244141
1493267505070,0.366211,0.940430,-0.299316
1493267505208,1.213867,1.233643,-0.292725
1493267505340,0.891602,1.156982,-0.771240
1493267505448,0.794189,0.318848,-0.334473
1493267505605,0.686768,0.213867,-0.776611
1493267505713,0.906250,0.017090,-0.696045
1493267505846,0.736816,0.020020,-0.594482
1493267505978,0.621582,0.677002,-0.541748
1493267506112,0.635742,0.467529,-0.584961
1493267506220,0.897461,0.359375,-0.396484
1493267506353,0.812256,0.363770,-0.217041
1493267506488,0.995850,0.305664,-0.308350
1493267506621,0.836182,0.352539,-0.080322
1493267506752,0.842285,0.322998,-0.279053
1493267506885,0.928467,0.466797,-0.128662
1493267507018,0.863281,0.484131,-0.114990
1493267507151,0.801270,0.784180,0.361328
1493267507260,1.097900,0.985596,-0.446045
1493267507391,0.493652,1.156006,-0.384277
1493267507524,0.375977,0.571289,-0.276367
1493267507656,-0.178467,0.602539,-0.393799
1493267507771,-0.507080,0.840820,-0.817139
1493267507905,-0.630371,0.645264,-0.246826
1493267508037,-0.663330,0.752930,-0.360596
1493267508179,-0.662842,0.686523,-0.318359
1493267508299,-0.683838,0.742188,-0.235596
1493267508432,-0.660156,0.729248,-0.191650
1493267508565,-0.646729,0.800781,-0.218262
1493267508709,-0.575928,0.863525,-0.133789
1493267508812,-0.588379,0.730225,-0.117432
1493267508949,-0.617920,0.743408,-0.134033
1493267509073,-0.618896,0.825195,-0.118164
1493267509205,-0.608643,0.802734,-0.103760
1493267509338,-0.615234,0.794922,-0.101807
1493267509468,-0.582520,0.791504,-0.095459
1493267509603,-0.598145,0.829102,-0.097168
1493267509711,-0.603516,0.824219,-0.106445
1493267509850,-0.563232,0.836914,-0.046875
1493267509982,-0.589844,0.795410,-0.082764
1493267510110,-0.549561,0.835205,-0.091797
1493267510253,-0.468994,0.950195,-0.067383
1493267510353,-0.461182,0.935547,-0.087646
1493267510485,-0.503662,0.966064,-0.059082
1493267510620,-0.598145,0.986572,0.295410
1493267510747,-0.800293,0.799561,0.466797
1493267510883,-0.654541,0.338379,0.219971
1493267511015,0.166260,1.874512,-0.050049
1493267511131,0.021484,1.104004,0.541016
1493267511264,-0.077637,0.951660,0.480957
1493267511422,-0.091064,0.887451,0.491211
1493267511538,-0.042480,0.850586,0.480957
1493267511658,-0.042236,0.871582,0.467773
1493267511788,-0.067139,0.881104,0.460938
1493267511923,0.014404,0.860840,0.456299
1493267512030,0.580566,1.079590,0.182373
1493267512192,0.122314,0.531006,-0.327881
1493267512291,-0.209473,0.329590,-0.496826
1493267512430,0.154785,0.857666,-1.873779
1493267512571,0.643555,0.941162,-0.811768
1493267512714,0.566650,0.639648,-0.910889
1493267512814,0.900879,0.468750,-0.398438
1493267512959,1.266602,0.362305,-0.787109
1493267513091,0.733398,0.146973,-0.404053
1493267513199,0.721191,0.204102,-0.471680
1493267513341,0.739502,0.001221,-0.600830
1493267513461,0.554443,-0.149170,-0.574463
1493267513595,1.023926,0.092041,-0.733887
1493267513729,1.028564,0.007324,-0.111816
1493267513844,0.919189,-0.051514,-0.252686
1493267513975,0.715820,-0.127441,-0.878662
1493267514104,0.885254,0.283203,-0.058838
1493267514243,1.086426,0.142334,0.015869
1493267514376,0.544189,0.178711,-0.986572
1493267514508,0.998291,-0.046387,-0.524170
1493267514641,0.752441,0.460693,-0.000488
1493267514757,0.786377,0.705566,-0.184570
1493267514890,1.020752,0.425537,0.186279
1493267515022,0.898193,0.315430,-0.077148
1493267515140,0.890381,1.146973,0.231445
1493267515301,0.563232,0.753662,0.071045
1493267515419,0.513672,0.981445,0.105713
1493267515526,0.123779,0.530029,0.183594
1493267515673,-0.018799,1.143799,0.164795
1493267515785,-0.057373,1.080322,0.134521
1493267515921,-0.112793,0.987061,0.098145
1493267516049,-0.095703,0.964111,0.105713
1493267516186,-0.146973,0.955322,-0.031250
1493267516294,-0.205078,1.036377,0.005371
1493267516432,-0.162598,0.974121,-0.042236
1493267516564,-0.124268,0.981201,-0.049316
1493267516703,-0.145264,0.990967,0.004639
1493267516839,-0.120117,1.002686,-0.008301
1493267516940,-0.096924,1.001221,-0.006592
1493267517080,-0.088135,1.028564,-0.016602
1493267517210,-0.121338,1.011230,0.019287
1493267517342,-0.113281,0.992920,-0.023926
1493267517474,-0.136475,0.990234,-0.025146
1493267517607,-0.298340,1.472900,0.570801
1493267517741,-0.599121,1.008789,0.474121
1493267517873,-0.644287,0.392090,0.217773
1493267518005,0.643799,0.177979,0.783936
1493267518141,0.431396,0.222412,0.961182
1493267518248,0.160889,0.333496,0.979736
1493267518388,0.001465,0.218506,1.092529
1493267518521,-0.062744,0.101318,0.741455
1493267518628,-0.312500,0.995605,0.594482
1493267518786,-0.290283,0.463867,0.322266
1493267518893,-0.390381,0.584717,0.083740
1493267519026,-0.684814,0.709473,-0.161133
1493267519158,-0.830322,1.023193,-0.186035
1493267519288,-0.514160,0.965576,-0.289307
1493267519421,-0.510986,0.868652,-0.323730
1493267519534,-0.538330,1.132568,-0.209961
1493267519676,-0.401855,0.778564,-0.323486
1493267519785,-0.645264,0.374268,-0.512695
1493267519941,-0.221680,0.581299,0.029785
1493267520048,-0.046875,1.333252,0.473877
1493267520181,-0.073242,1.087891,0.483643
1493267520325,-0.120605,0.941162,0.299805
1493267520460,-0.081543,0.612549,0.204102
1493267520571,-0.187256,0.742188,0.215332
1493267520698,0.492432,0.819824,0.500488
1493267520833,1.043213,0.697998,-0.124268
1493267520968,0.874512,0.295898,0.207764
1493267521103,0.884277,0.171143,0.001953
1493267521223,1.338623,0.505371,-0.237793
1493267521355,0.762207,0.315430,0.393799
1493267521490,0.748047,0.399902,-0.036133
1493267521622,1.030273,0.196533,0.002197
1493267521730,1.477539,0.458740,0.172119
1493267521872,0.617432,0.401855,0.021484
1493267522001,0.683594,0.218994,-0.055908
1493267522118,1.016113,0.231934,-0.148926
1493267522250,0.930664,0.326660,0.325439
1493267522385,0.673828,0.190918,0.025391
1493267522517,0.805908,0.441650,0.023926
1493267522650,1.172607,0.454834,0.096191
1493267522782,1.048096,0.247070,0.000488
1493267522891,0.788330,0.143311,-0.058838
1493267523051,1.110596,0.264648,-0.055908
1493267523157,1.162354,0.236084,-0.036865
1493267523286,0.768311,0.243652,0.285400
1493267523419,0.703613,0.215576,0.069580
1493267523557,1.067139,0.474854,0.263916
1493267523665,1.291260,0.544922,-0.005371
1493267523822,0.854004,0.357666,0.047852
1493267523954,0.699219,0.399658,-0.022705
1493267524058,1.248535,0.454834,-0.106689
1493267524200,0.872559,0.421875,0.074219
1493267524332,0.895264,0.357910,-0.034180
1493267524459,0.674072,0.394775,0.070801
1493267524591,0.685059,0.691650,0.062988
1493267524730,0.948975,0.737305,-0.066162
1493267524837,0.696533,0.349609,0.060059
1493267524970,0.727783,0.221436,0.015381
1493267525103,1.429443,0.343262,-0.170898
1493267525245,0.927490,0.440430,0.315918
1493267525377,0.764160,0.212402,-0.026367
1493267525486,0.970459,0.441406,0.055664
1493267525619,1.446045,0.431641,-0.038086
1493267525764,0.880127,0.263428,0.032471
1493267525872,0.648438,0.301514,0.046143
1493267526006,1.012207,0.235596,-0.094971
1493267526139,1.143311,0.216797,0.207031
1493267526272,0.664795,0.171143,0.156982
1493267526386,0.719727,0.220215,0.213135
1493267526543,1.178955,0.539062,0.229492
1493267526652,1.072998,0.344482,0.001221
1493267526793,0.663818,0.245117,-0.004150
1493267526945,0.884277,0.290771,-0.046631
1493267527051,1.350342,0.257080,-0.042725
1493267527161,0.913574,0.243408,0.242920
1493267527298,0.652832,0.047119,0.189209
1493267527429,0.780273,0.621826,0.265625
1493267527562,1.086426,0.960938,0.205322
1493267527692,0.752686,0.544922,0.081543
1493267527831,0.703369,0.265381,-0.056152
1493267527937,1.016357,0.305176,0.022949
1493267528088,1.064453,0.288086,0.168945
1493267528202,0.545166,0.176514,0.151855
1493267528331,1.013428,0.678955,0.039062
1493267528463,1.677490,0.680176,0.018555
1493267528592,0.950928,0.308105,0.031494
1493267528726,0.894531,0.190918,-0.191895
1493267528862,1.118408,0.252197,-0.064697
1493267528970,0.859863,0.342773,0.213623
1493267529104,0.597168,0.097168,0.243164
1493267529236,0.778809,0.602051,0.614258
1493267529369,1.134766,1.107666,0.179932
1493267529475,0.859131,0.601318,0.160889
1493267529633,0.587891,0.301270,0.074707
1493267529766,1.005615,0.271484,-0.010010
1493267529899,1.189941,0.260254,0.084473
1493267530006,0.600830,0.206055,0.301025
1493267530139,0.975098,0.345459,0.114990
1493267530273,1.080566,0.612061,0.136230
1493267530386,1.195801,0.481445,0.005127
1493267530544,0.818604,0.096191,-0.024902
1493267530677,0.876465,0.257568,-0.062988
1493267530809,1.390625,0.218018,-0.118896
1493267530916,0.731689,0.187988,0.357178
1493267531050,0.589844,0.167725,-0.068848
1493267531189,1.384277,0.440674,0.196045
1493267531321,1.588135,0.175781,-0.112305
1493267531433,0.921387,0.364502,-0.008545
1493267531562,0.676025,0.357422,0.047119
1493267531707,1.112549,0.287354,0.061279
1493267531817,0.836914,0.345215,0.125732
1493267531955,0.633301,0.247559,0.222412
1493267532089,0.851074,0.316406,0.104492
1493267532196,1.206543,0.449463,0.161865
1493267532356,1.064453,0.297119,0.138916
1493267532463,0.645508,0.174316,0.073242
1493267532598,0.753174,0.390381,-0.056396
1493267532730,1.523926,0.352783,-0.060791
1493267532863,0.849365,0.121338,0.407959
1493267532970,0.757812,0.140381,0.044434
1493267533128,0.725342,0.358643,0.422852
1493267533236,1.524902,0.889648,0.135010
1493267533369,0.924316,0.799561,0.134521
1493267533501,0.930908,0.429688,-0.094971
1493267533636,0.783447,0.376709,0.071777
1493267533744,0.984619,0.273682,0.118652
1493267533876,0.907471,0.243164,0.195068
1493267534012,1.023926,0.491211,0.041748
1493267534148,1.049561,0.400635,0.039307
1493267534277,0.549561,0.925293,0.159180
1493267534415,0.864746,0.402344,0.227295
1493267534523,0.925781,0.462158,0.274170
1493267534669,0.835938,0.413574,0.067139
1493267534783,1.174805,0.207275,-0.004883
1493267534918,1.303955,0.350098,-0.104980
1493267535055,0.871338,0.637451,0.100098
1493267535186,0.534180,0.236816,0.238770
1493267535320,1.023193,0.256348,0.028076
1493267535452,1.842285,0.512207,-0.031982
1493267535559,0.968994,0.412842,0.086426
1493267535701,0.667480,0.217773,0.048584
1493267535839,0.839600,0.028076,0.115234
1493267535955,1.230225,0.396973,0.345459
1493267536091,0.818604,0.348633,0.062012
1493267536222,1.159668,0.489258,0.185059
1493267536359,1.864014,0.265381,-0.048828
1493267536471,0.892822,0.290527,0.149658
1493267536604,0.890625,0.303467,-0.209717
1493267536736,1.170410,0.289307,-0.041260
1493267536847,1.141846,0.176514,0.166992
1493267536981,0.448242,0.141113,0.120605
1493267537111,0.896484,0.448242,0.059326
1493267537244,1.270996,0.637207,0.395020
1493267537382,1.057617,0.346680,-0.094238
1493267537515,0.542725,0.236328,0.095459
1493267537629,1.064209,0.328857,-0.241943
1493267537764,1.436523,0.362549,0.107666
1493267537896,0.675049,0.158691,0.301025
1493267538027,0.634766,0.200195,0.185791
1493267538160,0.940430,0.395508,0.570557
1493267538295,1.261475,0.685547,0.130371
1493267538413,0.603271,0.338379,0.110840
1493267538564,0.670166,0.165039,-0.017334
1493267538673,1.303223,0.222168,0.125977
1493267538804,0.835449,0.400391,0.316650
1493267538921,0.529541,0.343994,0.074707
1493267539058,0.908203,0.523193,-0.080811
1493267539193,1.760010,0.197510,-0.286865
1493267539308,0.820068,0.099609,0.095947
1493267539441,0.629639,0.171631,-0.050049
1493267539573,1.107422,0.339111,-0.187012
1493267539745,0.954590,0.546875,0.114502
1493267539829,0.687256,0.243408,0.155273
1493267539962,0.843262,0.431641,0.159912
1493267540094,1.517334,0.588867,-0.005371
1493267540231,0.991455,0.293457,0.093994
1493267540339,0.623047,0.237549,0.040527
1493267540486,1.076172,0.337891,-0.151123
1493267540620,1.348389,0.268066,-0.042725
1493267540756,0.596436,0.238525,0.343018
1493267540888,0.774902,0.244629,0.136963
1493267540998,0.994873,0.491211,0.580322
1493267541129,1.039795,0.732422,0.210938
1493267541268,0.609375,0.363525,0.092529
1493267541400,0.837402,0.206055,-0.063721
1493267541508,1.053223,0.161865,-0.065186
1493267541648,0.939453,0.425781,0.335693
1493267541780,0.585449,0.202881,0.049805
1493267541914,0.871826,0.345947,0.298096
1493267542028,1.560547,0.590332,0.012695
1493267542160,0.939941,0.306641,-0.007812
1493267542304,0.634766,0.146240,0.040771
1493267542417,1.289062,0.370850,-0.075439
1493267542552,1.322266,0.416748,0.109863
1493267542684,0.531738,0.234619,0.351318
1493267542819,0.615967,0.229736,0.076660
1493267542926,1.211426,0.604736,0.432373
1493267543062,1.128906,0.488770,0.048828
1493267543191,0.621338,0.153564,0.068848
1493267543335,0.713867,0.281738,0.033936
1493267543443,1.374268,0.371094,-0.110596
1493267543587,0.872559,0.302490,0.314209
1493267543719,0.644287,0.169922,0.098145
1493267543852,0.725830,0.272949,0.194336
1493267543985,0.981934,0.576416,0.253174
1493267544093,1.108643,0.783691,-0.058350
1493267544222,0.567627,0.588623,-0.060059
1493267544358,0.797607,0.221924,-0.012207
1493267544496,1.063721,0.254639,0.066895
1493267544604,0.963135,0.450928,0.119629
1493267544761,0.791260,0.144775,-0.009033
1493267544888,0.742432,0.288574,0.105469
1493267544998,1.023926,0.488281,0.067139
1493267545131,1.182373,0.264893,-0.156738
1493267545271,0.989014,0.151123,-0.105469
1493267545379,0.675293,0.223389,0.025146
1493267545532,0.610107,0.357910,-0.008301
1493267545647,0.779297,0.313477,0.071289
1493267545783,1.187744,0.337402,0.379395
1493267545917,0.861572,0.135498,0.055176
1493267546026,0.975586,0.267822,0.080078
1493267546171,1.687744,0.305176,-0.300537
1493267546304,0.992676,0.303955,0.152100
1493267546433,0.599365,0.225098,0.040527
1493267546544,0.711914,0.419922,-0.003174
1493267546678,1.280273,0.351562,-0.182129
1493267546812,0.908447,0.279785,0.269287
1493267546944,0.857666,0.133057,0.072754
1493267547077,2.180176,0.196289,-0.467529
1493267547209,0.915039,0.125732,0.128662
1493267547323,0.520752,0.214600,-0.067627
1493267547474,0.754639,0.319092,-0.056885
1493267547608,1.895508,0.468262,-0.269043
1493267547724,0.978271,0.332764,0.363037
1493267547857,0.401855,0.029297,0.081055
1493267547989,1.249023,0.547119,0.059570
1493267548099,1.908447,0.309814,-0.079102
1493267548254,0.760254,0.292236,0.270264
1493267548363,0.474609,0.164307,-0.083740
1493267548495,1.157959,0.456787,-0.190430
1493267548628,0.954834,0.287109,0.491211
1493267548750,0.941406,0.431152,-0.021240
1493267548868,1.014404,0.375977,0.227295
1493267549001,1.369141,0.422852,0.149902
1493267549133,1.078613,0.355957,-0.204102
1493267549290,0.792236,0.123535,-0.043213
1493267549398,1.164795,0.354248,-0.122803
1493267549530,0.923584,0.344238,0.139160
1493267549661,0.555664,0.140137,0.169922
1493267549797,1.015381,0.449219,0.029053
1493267549929,1.226562,0.394531,0.192383
1493267550034,1.093506,0.396729,-0.363281
1493267550192,0.680420,0.024902,-0.053467
1493267550299,0.955811,0.312988,0.153076
1493267550432,1.358887,0.203857,-0.161621
1493267550564,0.759521,0.202148,0.337891
1493267550698,0.701416,0.213135,0.001465
1493267550834,1.015381,0.281494,0.069824
1493267550951,1.175293,0.366699,-0.125244
1493267551082,0.889404,0.180908,0.016113
1493267551191,0.930664,0.289551,-0.078857
1493267551359,0.281006,0.277100,0.104492
1493267551467,1.157959,0.607178,0.423096
1493267551599,0.900879,0.183105,0.078613
1493267551740,0.954102,0.302979,0.142578
1493267551860,1.555664,0.443848,-0.190674
1493267551992,0.979980,0.125244,-0.079102
1493267552124,0.501465,0.254395,0.113525
1493267552257,0.939453,0.282959,-0.102783
1493267552389,1.074463,0.284180,0.108887
1493267552498,0.757568,0.186279,-0.029785
1493267552619,0.878174,0.208984,0.141602
1493267552824,1.508301,1.036133,0.268555
1493267552922,1.511475,0.467285,-0.032959
1493267553022,0.852051,0.158936,0.031982
1493267553136,0.896484,0.484863,-0.026611
1493267553281,1.132568,0.114502,0.378418
1493267553401,0.790039,0.191162,0.167480
1493267553543,0.899902,0.393311,0.443604
1493267553668,0.957275,0.650391,-0.041748
1493267553801,1.360107,0.233154,-0.203613
1493267553931,0.541748,0.332275,0.139160
1493267554060,0.978760,0.178711,-0.074219
1493267554194,1.288330,0.384766,-0.171875
1493267554301,0.611328,0.159180,0.244873
1493267554445,0.779785,0.309814,0.258789
1493267554570,1.203613,0.887695,0.208740
1493267554702,1.325195,0.730469,-0.162842
1493267554834,0.561035,0.056885,0.138672
1493267554942,0.315918,0.160156,0.064209
1493267555105,1.510254,0.782959,0.876953
1493267555218,0.644043,-0.155029,0.797607
1493267555351,0.128174,-0.158936,0.556885
1493267555480,0.015381,-0.204346,0.946533
1493267555591,0.216553,-0.001709,1.317871
1493267555723,0.098633,-0.079346,0.660400
1493267555883,-0.013672,0.127686,0.624512
1493267556013,0.153076,0.075928,0.833740
1493267556132,0.554199,0.549805,1.378662
1493267556242,0.345703,0.153076,0.885742
1493267556384,0.297852,0.112061,0.771729
1493267556524,0.141846,-0.134033,1.105957
1493267556632,0.991455,-0.031494,1.162842
1493267556764,-0.000732,0.072754,0.697754
1493267556897,0.044189,0.020996,1.008057
1493267557027,-0.089600,-0.096436,1.221436
1493267557165,-0.106445,-0.102295,0.877686
1493267557270,-0.091797,-0.173340,0.691895
1493267557418,-0.153809,-0.152100,0.944092
1493267557551,-0.086670,-0.020508,0.756104
1493267557689,0.961182,0.391113,0.134033
1493267557798,0.984863,0.399170,0.691162
1493267557917,1.281250,0.308594,-0.034180
1493267558049,1.359863,0.541504,0.095215
1493267558182,0.668701,0.206055,0.149170
1493267558314,0.774902,0.384766,0.124023
1493267558447,1.792969,0.383301,-0.212402
1493267558580,1.324219,0.119141,0.049072
1493267558713,0.476562,0.045410,0.069580
1493267558840,0.947998,0.273926,-0.102295
1493267558989,1.021973,0.428955,-0.089355
1493267559127,0.697510,0.334961,0.229492
1493267559223,0.706299,0.411377,0.208008
1493267559350,1.097656,0.361572,-0.193848
1493267559483,1.297363,0.343506,-0.017822
1493267559604,0.648193,0.083252,0.079102
1493267559729,0.746338,0.239746,-0.167725
1493267559863,1.572266,0.125977,-0.120605
1493267560000,0.729736,0.131836,0.412109
1493267560132,0.641357,0.199707,0.013184
1493267560274,1.307861,0.450684,0.154297
1493267560390,1.653320,0.266357,-0.285400
1493267560519,0.860596,0.178955,0.034424
1493267560654,0.603027,0.096680,0.036621
1493267560793,0.902344,0.319580,-0.135986
1493267560901,0.982666,0.335938,0.429688
1493267561030,0.602295,0.164795,0.143555
1493267561166,0.909912,0.459473,0.025635
1493267561309,1.448975,0.451416,-0.105957
1493267561441,1.227295,0.112549,-0.020996
1493267561555,0.593262,0.155273,0.115723
1493267561671,0.882812,0.302734,-0.091553
1493267561803,1.105957,0.294922,0.124756
1493267561937,0.832031,0.130371,0.263184
1493267562072,0.847900,0.179688,0.313965
1493267562204,1.029297,0.389404,0.126953
1493267562337,1.361816,0.446289,0.077637
1493267562472,0.786133,0.125732,0.174561
1493267562605,0.748047,0.218262,-0.048584
1493267562711,1.415283,0.093750,-0.136475
1493267562836,1.001465,0.172852,0.647461
1493267562975,0.761963,0.103027,0.148682
1493267563107,1.217773,0.384277,0.298340
1493267563221,1.564697,0.477539,0.072754
1493267563354,0.938965,0.208496,0.019531
1493267563489,0.532959,0.240723,0.104736
1493267563620,0.812988,0.148193,-0.025146
1493267563753,1.442871,0.302490,0.135254
1493267563858,0.663086,0.194092,0.275146
1493267563993,0.821777,0.314453,0.489258
1493267564140,1.298340,0.637451,0.008301
1493267564272,1.347656,0.457520,0.027832
1493267564386,0.615479,0.099609,0.242920
1493267564543,0.705322,0.258789,0.029297
1493267564651,1.211914,0.320068,0.000244
1493267564783,0.918213,0.166504,0.455078
1493267564916,0.837646,0.310547,0.142822
1493267565024,1.079590,0.552246,0.149658
1493267565160,1.224121,0.376953,-0.154297
1493267565290,0.797119,0.184326,0.206299
1493267565419,0.489258,0.221191,0.020020
1493267565555,1.149414,0.356934,0.094238
1493267565691,0.889648,0.217041,0.405273
1493267565822,0.663086,0.236816,0.108643
1493267565937,0.845215,0.346680,-0.030029
1493267566066,2.221436,0.290527,-0.458984
1493267566199,1.034912,0.286621,0.090576
1493267566334,0.288818,0.133057,0.113281
1493267566451,1.061279,0.142578,-0.262695
1493267566583,1.178223,0.378906,0.094727
1493267566703,0.704102,0.197998,0.304199
1493267566852,0.746582,0.377441,0.515625
1493267566983,1.103027,0.145508,-0.120850
1493267567117,1.026855,0.067871,-0.339600
1493267567250,0.693359,0.341309,0.343750
1493267567382,0.632080,0.100342,0.039551
1493267567490,1.479492,0.127441,-0.299316
1493267567622,0.755859,0.194336,0.531738
1493267567755,0.677002,0.148193,0.178467
1493267567905,1.093994,0.247070,-0.125000
1493267568019,1.591309,0.355957,-0.179688
1493267568126,0.782471,0.249756,0.197510
1493267568259,0.500732,0.143555,0.034912
1493267568393,0.877930,0.143555,-0.101562
1493267568534,1.072754,0.295410,0.538086
1493267568644,0.694580,0.208740,0.339844
1493267568776,0.779053,0.299316,0.175537
1493267568913,1.162109,0.380127,-0.124023
1493267569046,1.391602,0.239258,0.038330
1493267569185,0.528320,0.092773,0.107422
1493267569292,0.717529,0.236084,-0.162842
1493267569422,1.530273,0.254395,-0.118408
1493267569563,0.816895,0.242188,0.451172
1493267569696,0.757812,0.145996,0.121826
1493267569804,1.110840,0.297607,0.059326
1493267569973,1.930176,0.399902,-0.372803
1493267570080,0.858154,-0.048584,0.059570
1493267570213,0.499023,0.197021,0.071533
1493267570346,0.923096,0.264893,-0.093262
1493267570465,1.166504,0.406738,0.436035
1493267570596,0.667969,0.166992,0.138184
1493267570735,1.085205,0.433594,0.145752
1493267570849,1.265137,0.465820,0.056641
1493267570987,1.409912,0.267334,-0.134277
1493267571116,0.557861,0.082275,0.144043
1493267571236,0.773926,0.291748,-0.100098
1493267571371,1.482422,0.217773,-0.221436
1493267571506,0.864746,0.189941,0.528564
1493267571640,0.799072,0.066650,-0.039062
1493267571745,1.110352,0.383301,0.171143
1493267571903,1.733887,0.478027,-0.292236
1493267572035,0.904541,0.007812,0.024170
1493267572145,0.515869,0.147949,0.118408
1493267572279,0.994385,0.320801,-0.024658
1493267572396,1.161621,0.349121,0.306641
1493267572529,0.706543,0.209473,0.032471
1493267572661,0.991943,0.387695,0.151367
1493267572800,1.731201,0.607422,-0.299316
1493267572910,1.130127,0.190430,-0.042725
1493267573050,0.581543,0.083984,-0.080566
1493267573218,1.377930,0.309570,-0.291992
1493267573325,1.305908,0.225586,-0.090088
1493267573460,0.510986,-0.041992,0.242676
1493267573564,0.726318,0.008789,0.070557
1493267573707,1.450928,0.475830,0.057617
1493267573839,1.221191,0.308594,0.123047
1493267573971,0.562500,0.203369,0.016357
1493267574087,0.649902,0.147217,-0.083496
1493267574220,1.779785,0.349854,-0.144043
1493267574353,0.911621,-0.012939,0.318848
1493267574470,0.591064,0.134766,0.017578
1493267574604,0.589355,0.565186,0.440918
1493267574742,1.317139,0.826660,0.116699
1493267574873,1.043945,0.425049,0.115234
1493267575006,0.648438,0.117432,0.029785
1493267575139,1.217529,0.238037,-0.182617
1493267575247,0.993164,0.437988,0.280762
1493267575404,0.649902,0.205566,0.137695
1493267575513,0.708984,0.346924,0.136719
1493267575638,1.104980,0.426025,0.131592
1493267575772,1.268799,0.437988,0.007324
1493267575879,0.733643,0.182373,0.033447
1493267576018,0.691162,0.203369,-0.050781
1493267576151,0.942871,0.195068,0.147949
1493267576283,1.028320,0.317383,0.317139
1493267576391,0.870361,0.218750,0.187256
1493267576548,1.003906,0.230957,0.054932
1493267576659,1.830322,0.340820,-0.271973
1493267576804,1.073730,0.197510,-0.059082
1493267576940,0.726807,0.129639,-0.045654
1493267577073,1.137207,0.357666,-0.141602
1493267577180,1.336670,0.090332,0.014160
1493267577321,0.952148,0.087402,0.184082
1493267577455,0.732422,0.098389,-0.098877
1493267577586,1.333740,0.261230,0.094727
1493267577728,1.360840,0.197754,-0.071777
1493267577836,1.081055,0.155029,0.021973
1493267577969,0.976318,0.136475,-0.323242
1493267578103,1.099121,0.260742,-0.121094
1493267578219,0.946289,0.143799,0.105713
1493267578353,1.015137,0.143311,-0.043701
1493267578473,0.603516,0.032715,-0.038818
1493267578605,1.382324,0.375244,0.086670
1493267578738,1.470703,0.126709,0.082031
1493267578870,0.728027,0.428955,0.146729
1493267579000,0.696289,0.039062,-0.243896
1493267579135,1.062744,0.056396,-0.385986
1493267579268,1.561035,0.355957,0.081543
1493267579400,0.877930,0.239502,0.091064
1493267579504,0.765137,0.226318,0.027100
1493267579642,0.619141,0.235107,0.156494
1493267579775,1.108398,0.288574,0.181885
1493267579908,1.150879,-0.016602,0.085938
1493267580040,0.623047,0.158691,0.091064
1493267580148,0.602783,0.244385,-0.179932
1493267580280,1.189697,0.189453,-0.189209
1493267580422,0.922852,0.227539,0.407959
1493267580554,0.546631,0.231445,0.050781
1493267580662,0.990723,0.406250,0.027832
1493267580830,1.784424,0.229492,-0.277832
1493267580938,0.953125,0.037842,-0.088623
1493267581070,0.662842,0.142090,0.069580
1493267581210,1.046631,0.268555,-0.025391
1493267581317,1.291992,0.363037,-0.020264
1493267581452,0.686279,0.094971,0.172852
1493267581584,0.828857,0.312256,0.155518
1493267581717,1.149170,0.503418,0.054199
1493267581824,1.108887,0.354736,0.018311
1493267581985,0.729736,0.039795,0.047607
1493267582093,0.813965,0.189697,-0.101807
1493267582225,1.198730,0.289062,-0.061768
1493267582362,0.846436,0.349609,0.294189
1493267582499,0.722412,0.158447,0.014404
1493267582607,0.943604,0.383545,0.018555
1493267582739,1.703369,0.310547,-0.143311
1493267582892,0.965576,0.304443,0.027588
1493267583024,0.651855,0.180420,-0.043457
1493267583156,1.061035,0.174805,-0.201660
1493267583265,1.513184,0.200195,-0.084961
1493267583395,0.802979,0.132324,0.202393
1493267583533,0.638184,0.177246,0.000732
1493267583665,1.113770,0.432617,0.226807
